  14  14   0   0
  0.1021318E+02  0.5700971E-09  0.4044058E-09  0.6201871E-09  0.5000000E-15
  1.000000000000000E-004
  CAR 
 Dielectric                              
     81.92735120    -17.19771300 4000      1.91648024      1.00000000
    -17.198  0.0000E+00  0.0000E+00
    -17.173  0.0000E+00  0.0000E+00
    -17.148  0.0000E+00  0.0000E+00
    -17.123  0.0000E+00  0.0000E+00
    -17.099  0.0000E+00  0.0000E+00
    -17.074  0.0000E+00  0.0000E+00
    -17.049  0.0000E+00  0.0000E+00
    -17.024  0.0000E+00  0.0000E+00
    -16.999  0.0000E+00  0.0000E+00
    -16.975  0.0000E+00  0.0000E+00
    -16.950  0.0000E+00  0.0000E+00
    -16.925  0.0000E+00  0.0000E+00
    -16.900  0.0000E+00  0.0000E+00
    -16.875  0.0000E+00  0.0000E+00
    -16.851  0.0000E+00  0.0000E+00
    -16.826  0.0000E+00  0.0000E+00
    -16.801  0.0000E+00  0.0000E+00
    -16.776  0.0000E+00  0.0000E+00
    -16.752  0.0000E+00  0.0000E+00
    -16.727  0.0000E+00  0.0000E+00
    -16.702  0.0000E+00  0.0000E+00
    -16.677  0.0000E+00  0.0000E+00
    -16.652  0.0000E+00  0.0000E+00
    -16.628  0.0000E+00  0.0000E+00
    -16.603  0.0000E+00  0.0000E+00
    -16.578  0.0000E+00  0.0000E+00
    -16.553  0.0000E+00  0.0000E+00
    -16.528  0.0000E+00  0.0000E+00
    -16.504  0.0000E+00  0.0000E+00
    -16.479  0.0000E+00  0.0000E+00
    -16.454  0.0000E+00  0.0000E+00
    -16.429  0.0000E+00  0.0000E+00
    -16.405  0.0000E+00  0.0000E+00
    -16.380  0.0000E+00  0.0000E+00
    -16.355  0.0000E+00  0.0000E+00
    -16.330  0.0000E+00  0.0000E+00
    -16.305  0.0000E+00  0.0000E+00
    -16.281  0.0000E+00  0.0000E+00
    -16.256  0.0000E+00  0.0000E+00
    -16.231  0.0000E+00  0.0000E+00
    -16.206  0.0000E+00  0.0000E+00
    -16.181  0.0000E+00  0.0000E+00
    -16.157  0.0000E+00  0.0000E+00
    -16.132  0.0000E+00  0.0000E+00
    -16.107  0.0000E+00  0.0000E+00
    -16.082  0.0000E+00  0.0000E+00
    -16.057  0.0000E+00  0.0000E+00
    -16.033  0.0000E+00  0.0000E+00
    -16.008  0.0000E+00  0.0000E+00
    -15.983  0.0000E+00  0.0000E+00
    -15.958  0.0000E+00  0.0000E+00
    -15.934  0.0000E+00  0.0000E+00
    -15.909  0.0000E+00  0.0000E+00
    -15.884  0.0000E+00  0.0000E+00
    -15.859  0.0000E+00  0.0000E+00
    -15.834  0.0000E+00  0.0000E+00
    -15.810  0.0000E+00  0.0000E+00
    -15.785  0.0000E+00  0.0000E+00
    -15.760  0.0000E+00  0.0000E+00
    -15.735  0.0000E+00  0.0000E+00
    -15.710  0.0000E+00  0.0000E+00
    -15.686  0.0000E+00  0.0000E+00
    -15.661  0.0000E+00  0.0000E+00
    -15.636  0.0000E+00  0.0000E+00
    -15.611  0.0000E+00  0.0000E+00
    -15.587  0.0000E+00  0.0000E+00
    -15.562  0.0000E+00  0.0000E+00
    -15.537  0.0000E+00  0.0000E+00
    -15.512  0.0000E+00  0.0000E+00
    -15.487  0.0000E+00  0.0000E+00
    -15.463  0.0000E+00  0.0000E+00
    -15.438  0.0000E+00  0.0000E+00
    -15.413  0.0000E+00  0.0000E+00
    -15.388  0.0000E+00  0.0000E+00
    -15.363  0.0000E+00  0.0000E+00
    -15.339  0.0000E+00  0.0000E+00
    -15.314  0.0000E+00  0.0000E+00
    -15.289  0.0000E+00  0.0000E+00
    -15.264  0.0000E+00  0.0000E+00
    -15.240  0.0000E+00  0.0000E+00
    -15.215  0.0000E+00  0.0000E+00
    -15.190  0.0000E+00  0.0000E+00
    -15.165  0.0000E+00  0.0000E+00
    -15.140  0.0000E+00  0.0000E+00
    -15.116  0.0000E+00  0.0000E+00
    -15.091  0.0000E+00  0.0000E+00
    -15.066  0.0000E+00  0.0000E+00
    -15.041  0.0000E+00  0.0000E+00
    -15.016  0.0000E+00  0.0000E+00
    -14.992  0.0000E+00  0.0000E+00
    -14.967  0.0000E+00  0.0000E+00
    -14.942  0.0000E+00  0.0000E+00
    -14.917  0.0000E+00  0.0000E+00
    -14.892  0.0000E+00  0.0000E+00
    -14.868  0.0000E+00  0.0000E+00
    -14.843  0.0000E+00  0.0000E+00
    -14.818  0.0000E+00  0.0000E+00
    -14.793  0.0000E+00  0.0000E+00
    -14.769  0.0000E+00  0.0000E+00
    -14.744  0.0000E+00  0.0000E+00
    -14.719  0.0000E+00  0.0000E+00
    -14.694  0.0000E+00  0.0000E+00
    -14.669  0.0000E+00  0.0000E+00
    -14.645  0.0000E+00  0.0000E+00
    -14.620  0.0000E+00  0.0000E+00
    -14.595  0.0000E+00  0.0000E+00
    -14.570  0.0000E+00  0.0000E+00
    -14.545  0.0000E+00  0.0000E+00
    -14.521  0.0000E+00  0.0000E+00
    -14.496  0.0000E+00  0.0000E+00
    -14.471  0.0000E+00  0.0000E+00
    -14.446  0.0000E+00  0.0000E+00
    -14.422  0.0000E+00  0.0000E+00
    -14.397  0.0000E+00  0.0000E+00
    -14.372  0.0000E+00  0.0000E+00
    -14.347  0.0000E+00  0.0000E+00
    -14.322  0.0000E+00  0.0000E+00
    -14.298  0.0000E+00  0.0000E+00
    -14.273  0.0000E+00  0.0000E+00
    -14.248  0.0000E+00  0.0000E+00
    -14.223  0.0000E+00  0.0000E+00
    -14.198  0.0000E+00  0.0000E+00
    -14.174  0.0000E+00  0.0000E+00
    -14.149  0.0000E+00  0.0000E+00
    -14.124  0.0000E+00  0.0000E+00
    -14.099  0.0000E+00  0.0000E+00
    -14.074  0.0000E+00  0.0000E+00
    -14.050  0.0000E+00  0.0000E+00
    -14.025  0.0000E+00  0.0000E+00
    -14.000  0.0000E+00  0.0000E+00
    -13.975  0.0000E+00  0.0000E+00
    -13.951  0.0000E+00  0.0000E+00
    -13.926  0.0000E+00  0.0000E+00
    -13.901  0.0000E+00  0.0000E+00
    -13.876  0.0000E+00  0.0000E+00
    -13.851  0.0000E+00  0.0000E+00
    -13.827  0.0000E+00  0.0000E+00
    -13.802  0.0000E+00  0.0000E+00
    -13.777  0.0000E+00  0.0000E+00
    -13.752  0.0000E+00  0.0000E+00
    -13.727  0.0000E+00  0.0000E+00
    -13.703  0.0000E+00  0.0000E+00
    -13.678  0.0000E+00  0.0000E+00
    -13.653  0.0000E+00  0.0000E+00
    -13.628  0.0000E+00  0.0000E+00
    -13.604  0.0000E+00  0.0000E+00
    -13.579  0.0000E+00  0.0000E+00
    -13.554  0.0000E+00  0.0000E+00
    -13.529  0.0000E+00  0.0000E+00
    -13.504  0.0000E+00  0.0000E+00
    -13.480  0.0000E+00  0.0000E+00
    -13.455  0.0000E+00  0.0000E+00
    -13.430  0.0000E+00  0.0000E+00
    -13.405  0.0000E+00  0.0000E+00
    -13.380  0.0000E+00  0.0000E+00
    -13.356  0.0000E+00  0.0000E+00
    -13.331  0.0000E+00  0.0000E+00
    -13.306  0.0000E+00  0.0000E+00
    -13.281  0.0000E+00  0.0000E+00
    -13.257  0.0000E+00  0.0000E+00
    -13.232  0.0000E+00  0.0000E+00
    -13.207  0.0000E+00  0.0000E+00
    -13.182  0.0000E+00  0.0000E+00
    -13.157  0.0000E+00  0.0000E+00
    -13.133  0.0000E+00  0.0000E+00
    -13.108  0.0000E+00  0.0000E+00
    -13.083  0.0000E+00  0.0000E+00
    -13.058  0.0000E+00  0.0000E+00
    -13.033  0.0000E+00  0.0000E+00
    -13.009  0.0000E+00  0.0000E+00
    -12.984  0.0000E+00  0.0000E+00
    -12.959  0.0000E+00  0.0000E+00
    -12.934  0.0000E+00  0.0000E+00
    -12.909  0.0000E+00  0.0000E+00
    -12.885  0.0000E+00  0.0000E+00
    -12.860  0.0000E+00  0.0000E+00
    -12.835  0.0000E+00  0.0000E+00
    -12.810  0.0000E+00  0.0000E+00
    -12.786  0.0000E+00  0.0000E+00
    -12.761  0.0000E+00  0.0000E+00
    -12.736  0.6605E-10  0.1637E-11
    -12.711  0.8708E-03  0.2159E-04
    -12.686  0.3215E+00  0.7990E-02
    -12.662  0.8397E+00  0.2880E-01
    -12.637  0.1468E+01  0.6519E-01
    -12.612  0.2300E+01  0.1222E+00
    -12.587  0.2139E+01  0.1752E+00
    -12.562  0.2841E+01  0.2456E+00
    -12.538  0.3453E+01  0.3312E+00
    -12.513  0.3311E+01  0.4133E+00
    -12.488  0.3330E+01  0.4958E+00
    -12.463  0.3446E+01  0.5812E+00
    -12.439  0.3397E+01  0.6654E+00
    -12.414  0.4664E+01  0.7811E+00
    -12.389  0.4445E+01  0.8912E+00
    -12.364  0.5149E+01  0.1019E+01
    -12.339  0.4700E+01  0.1135E+01
    -12.315  0.3156E+01  0.1214E+01
    -12.290  0.3734E+01  0.1306E+01
    -12.265  0.2808E+01  0.1376E+01
    -12.240  0.4099E+01  0.1477E+01
    -12.215  0.3245E+01  0.1558E+01
    -12.191  0.3003E+01  0.1632E+01
    -12.166  0.2516E+01  0.1695E+01
    -12.141  0.2480E+01  0.1756E+01
    -12.116  0.1934E+01  0.1804E+01
    -12.091  0.2855E+01  0.1875E+01
    -12.067  0.3439E+01  0.1960E+01
    -12.042  0.2230E+01  0.2015E+01
    -12.017  0.3379E+01  0.2099E+01
    -11.992  0.2018E+01  0.2149E+01
    -11.968  0.2575E+01  0.2213E+01
    -11.943  0.1218E+01  0.2243E+01
    -11.918  0.2707E+01  0.2310E+01
    -11.893  0.3223E+01  0.2390E+01
    -11.868  0.2443E+01  0.2451E+01
    -11.844  0.3229E+01  0.2531E+01
    -11.819  0.2957E+01  0.2604E+01
    -11.794  0.2262E+01  0.2660E+01
    -11.769  0.1733E+01  0.2703E+01
    -11.744  0.3137E+01  0.2781E+01
    -11.720  0.3088E+01  0.2857E+01
    -11.695  0.4096E+01  0.2959E+01
    -11.670  0.4439E+01  0.3069E+01
    -11.645  0.3151E+01  0.3147E+01
    -11.621  0.3311E+01  0.3229E+01
    -11.596  0.2980E+01  0.3303E+01
    -11.571  0.4096E+01  0.3404E+01
    -11.546  0.2948E+01  0.3478E+01
    -11.521  0.4271E+01  0.3583E+01
    -11.497  0.2521E+01  0.3646E+01
    -11.472  0.3745E+01  0.3739E+01
    -11.447  0.1595E+01  0.3778E+01
    -11.422  0.2572E+01  0.3842E+01
    -11.397  0.1810E+01  0.3887E+01
    -11.373  0.1505E+01  0.3924E+01
    -11.348  0.1312E+01  0.3957E+01
    -11.323  0.6440E+00  0.3973E+01
    -11.298  0.7246E+00  0.3991E+01
    -11.274  0.3643E+00  0.4000E+01
    -11.249  0.1305E-01  0.4000E+01
    -11.224  0.3489E-07  0.4000E+01
    -11.199  0.0000E+00  0.4000E+01
    -11.174  0.0000E+00  0.4000E+01
    -11.150  0.0000E+00  0.4000E+01
    -11.125  0.0000E+00  0.4000E+01
    -11.100  0.0000E+00  0.4000E+01
    -11.075  0.0000E+00  0.4000E+01
    -11.050  0.0000E+00  0.4000E+01
    -11.026  0.0000E+00  0.4000E+01
    -11.001  0.0000E+00  0.4000E+01
    -10.976  0.0000E+00  0.4000E+01
    -10.951  0.0000E+00  0.4000E+01
    -10.926  0.0000E+00  0.4000E+01
    -10.902  0.0000E+00  0.4000E+01
    -10.877  0.0000E+00  0.4000E+01
    -10.852  0.0000E+00  0.4000E+01
    -10.827  0.0000E+00  0.4000E+01
    -10.803  0.0000E+00  0.4000E+01
    -10.778  0.0000E+00  0.4000E+01
    -10.753  0.0000E+00  0.4000E+01
    -10.728  0.0000E+00  0.4000E+01
    -10.703  0.0000E+00  0.4000E+01
    -10.679  0.0000E+00  0.4000E+01
    -10.654  0.0000E+00  0.4000E+01
    -10.629  0.0000E+00  0.4000E+01
    -10.604  0.0000E+00  0.4000E+01
    -10.579  0.0000E+00  0.4000E+01
    -10.555  0.0000E+00  0.4000E+01
    -10.530  0.0000E+00  0.4000E+01
    -10.505  0.0000E+00  0.4000E+01
    -10.480  0.0000E+00  0.4000E+01
    -10.456  0.0000E+00  0.4000E+01
    -10.431  0.0000E+00  0.4000E+01
    -10.406  0.0000E+00  0.4000E+01
    -10.381  0.0000E+00  0.4000E+01
    -10.356  0.0000E+00  0.4000E+01
    -10.332  0.0000E+00  0.4000E+01
    -10.307  0.0000E+00  0.4000E+01
    -10.282  0.0000E+00  0.4000E+01
    -10.257  0.0000E+00  0.4000E+01
    -10.232  0.0000E+00  0.4000E+01
    -10.208  0.0000E+00  0.4000E+01
    -10.183  0.0000E+00  0.4000E+01
    -10.158  0.0000E+00  0.4000E+01
    -10.133  0.0000E+00  0.4000E+01
    -10.108  0.0000E+00  0.4000E+01
    -10.084  0.0000E+00  0.4000E+01
    -10.059  0.0000E+00  0.4000E+01
    -10.034  0.0000E+00  0.4000E+01
    -10.009  0.0000E+00  0.4000E+01
     -9.985  0.0000E+00  0.4000E+01
     -9.960  0.0000E+00  0.4000E+01
     -9.935  0.0000E+00  0.4000E+01
     -9.910  0.0000E+00  0.4000E+01
     -9.885  0.0000E+00  0.4000E+01
     -9.861  0.0000E+00  0.4000E+01
     -9.836  0.0000E+00  0.4000E+01
     -9.811  0.0000E+00  0.4000E+01
     -9.786  0.0000E+00  0.4000E+01
     -9.761  0.0000E+00  0.4000E+01
     -9.737  0.0000E+00  0.4000E+01
     -9.712  0.0000E+00  0.4000E+01
     -9.687  0.0000E+00  0.4000E+01
     -9.662  0.0000E+00  0.4000E+01
     -9.638  0.0000E+00  0.4000E+01
     -9.613  0.0000E+00  0.4000E+01
     -9.588  0.0000E+00  0.4000E+01
     -9.563  0.0000E+00  0.4000E+01
     -9.538  0.0000E+00  0.4000E+01
     -9.514  0.0000E+00  0.4000E+01
     -9.489  0.0000E+00  0.4000E+01
     -9.464  0.0000E+00  0.4000E+01
     -9.439  0.0000E+00  0.4000E+01
     -9.414  0.0000E+00  0.4000E+01
     -9.390  0.0000E+00  0.4000E+01
     -9.365  0.0000E+00  0.4000E+01
     -9.340  0.0000E+00  0.4000E+01
     -9.315  0.0000E+00  0.4000E+01
     -9.291  0.0000E+00  0.4000E+01
     -9.266  0.0000E+00  0.4000E+01
     -9.241  0.0000E+00  0.4000E+01
     -9.216  0.0000E+00  0.4000E+01
     -9.191  0.0000E+00  0.4000E+01
     -9.167  0.0000E+00  0.4000E+01
     -9.142  0.0000E+00  0.4000E+01
     -9.117  0.0000E+00  0.4000E+01
     -9.092  0.0000E+00  0.4000E+01
     -9.067  0.0000E+00  0.4000E+01
     -9.043  0.0000E+00  0.4000E+01
     -9.018  0.0000E+00  0.4000E+01
     -8.993  0.0000E+00  0.4000E+01
     -8.968  0.0000E+00  0.4000E+01
     -8.943  0.0000E+00  0.4000E+01
     -8.919  0.0000E+00  0.4000E+01
     -8.894  0.0000E+00  0.4000E+01
     -8.869  0.6270E-11  0.4000E+01
     -8.844  0.3892E-03  0.4000E+01
     -8.820  0.3242E+00  0.4008E+01
     -8.795  0.8715E+00  0.4030E+01
     -8.770  0.1725E+01  0.4072E+01
     -8.745  0.2339E+01  0.4130E+01
     -8.720  0.1174E+01  0.4159E+01
     -8.696  0.4192E+01  0.4263E+01
     -8.671  0.3556E+01  0.4352E+01
     -8.646  0.5613E+01  0.4491E+01
     -8.621  0.6364E+01  0.4648E+01
     -8.596  0.6867E+01  0.4819E+01
     -8.572  0.6929E+01  0.4990E+01
     -8.547  0.7058E+01  0.5165E+01
     -8.522  0.6145E+01  0.5318E+01
     -8.497  0.6095E+01  0.5469E+01
     -8.473  0.7467E+01  0.5654E+01
     -8.448  0.7277E+01  0.5834E+01
     -8.423  0.5390E+01  0.5968E+01
     -8.398  0.4463E+01  0.6078E+01
     -8.373  0.3110E+01  0.6156E+01
     -8.349  0.4891E+01  0.6277E+01
     -8.324  0.4400E+01  0.6386E+01
     -8.299  0.4728E+01  0.6503E+01
     -8.274  0.4823E+01  0.6623E+01
     -8.249  0.5298E+01  0.6754E+01
     -8.225  0.5615E+01  0.6893E+01
     -8.200  0.4540E+01  0.7006E+01
     -8.175  0.4118E+01  0.7108E+01
     -8.150  0.4227E+01  0.7212E+01
     -8.126  0.4077E+01  0.7314E+01
     -8.101  0.5177E+01  0.7442E+01
     -8.076  0.4447E+01  0.7552E+01
     -8.051  0.4288E+01  0.7658E+01
     -8.026  0.2374E+01  0.7717E+01
     -8.002  0.2654E+01  0.7783E+01
     -7.977  0.2057E+01  0.7834E+01
     -7.952  0.1332E+01  0.7867E+01
     -7.927  0.9837E+00  0.7891E+01
     -7.902  0.1701E+01  0.7934E+01
     -7.878  0.1038E+01  0.7959E+01
     -7.853  0.5949E+00  0.7974E+01
     -7.828  0.1636E+00  0.7978E+01
     -7.803  0.5497E+00  0.7992E+01
     -7.778  0.3352E+00  0.8000E+01
     -7.754  0.4776E-03  0.8000E+01
     -7.729  0.9423E-11  0.8000E+01
     -7.704  0.0000E+00  0.8000E+01
     -7.679  0.0000E+00  0.8000E+01
     -7.655  0.0000E+00  0.8000E+01
     -7.630  0.0000E+00  0.8000E+01
     -7.605  0.0000E+00  0.8000E+01
     -7.580  0.0000E+00  0.8000E+01
     -7.555  0.0000E+00  0.8000E+01
     -7.531  0.0000E+00  0.8000E+01
     -7.506  0.0000E+00  0.8000E+01
     -7.481  0.0000E+00  0.8000E+01
     -7.456  0.0000E+00  0.8000E+01
     -7.431  0.0000E+00  0.8000E+01
     -7.407  0.0000E+00  0.8000E+01
     -7.382  0.0000E+00  0.8000E+01
     -7.357  0.0000E+00  0.8000E+01
     -7.332  0.0000E+00  0.8000E+01
     -7.308  0.0000E+00  0.8000E+01
     -7.283  0.0000E+00  0.8000E+01
     -7.258  0.0000E+00  0.8000E+01
     -7.233  0.0000E+00  0.8000E+01
     -7.208  0.0000E+00  0.8000E+01
     -7.184  0.0000E+00  0.8000E+01
     -7.159  0.0000E+00  0.8000E+01
     -7.134  0.0000E+00  0.8000E+01
     -7.109  0.0000E+00  0.8000E+01
     -7.084  0.0000E+00  0.8000E+01
     -7.060  0.0000E+00  0.8000E+01
     -7.035  0.0000E+00  0.8000E+01
     -7.010  0.0000E+00  0.8000E+01
     -6.985  0.0000E+00  0.8000E+01
     -6.960  0.1314E-13  0.8000E+01
     -6.936  0.1472E-04  0.8000E+01
     -6.911  0.1549E+00  0.8004E+01
     -6.886  0.4469E+00  0.8015E+01
     -6.861  0.4202E+00  0.8025E+01
     -6.837  0.6075E-01  0.8027E+01
     -6.812  0.4486E+00  0.8038E+01
     -6.787  0.5570E-02  0.8038E+01
     -6.762  0.2050E+00  0.8043E+01
     -6.737  0.3469E+00  0.8052E+01
     -6.713  0.4850E+00  0.8064E+01
     -6.688  0.7450E+00  0.8082E+01
     -6.663  0.2928E+00  0.8090E+01
     -6.638  0.9481E+00  0.8113E+01
     -6.613  0.9761E+00  0.8137E+01
     -6.589  0.4896E+00  0.8149E+01
     -6.564  0.1441E+01  0.8185E+01
     -6.539  0.5128E+00  0.8198E+01
     -6.514  0.5694E+00  0.8212E+01
     -6.490  0.9205E+00  0.8235E+01
     -6.465  0.3166E+00  0.8243E+01
     -6.440  0.1173E+01  0.8272E+01
     -6.415  0.2012E+01  0.8322E+01
     -6.390  0.1047E+01  0.8347E+01
     -6.366  0.1928E+01  0.8395E+01
     -6.341  0.1697E+01  0.8437E+01
     -6.316  0.8272E+00  0.8458E+01
     -6.291  0.1725E+01  0.8501E+01
     -6.266  0.2555E+01  0.8564E+01
     -6.242  0.2738E+01  0.8632E+01
     -6.217  0.2632E+01  0.8697E+01
     -6.192  0.2189E+01  0.8751E+01
     -6.167  0.3302E+01  0.8833E+01
     -6.143  0.4327E+01  0.8940E+01
     -6.118  0.5058E+01  0.9066E+01
     -6.093  0.3625E+01  0.9156E+01
     -6.068  0.3527E+01  0.9243E+01
     -6.043  0.3669E+01  0.9334E+01
     -6.019  0.3042E+01  0.9409E+01
     -5.994  0.3480E+01  0.9496E+01
     -5.969  0.4321E+01  0.9603E+01
     -5.944  0.5665E+01  0.9743E+01
     -5.919  0.3960E+01  0.9841E+01
     -5.895  0.4555E+01  0.9954E+01
     -5.870  0.3363E+01  0.1004E+02
     -5.845  0.3458E+01  0.1012E+02
     -5.820  0.3256E+01  0.1020E+02
     -5.795  0.5569E+01  0.1034E+02
     -5.771  0.5565E+01  0.1048E+02
     -5.746  0.3295E+01  0.1056E+02
     -5.721  0.2595E+01  0.1063E+02
     -5.696  0.3647E+01  0.1072E+02
     -5.672  0.4524E+01  0.1083E+02
     -5.647  0.3756E+01  0.1092E+02
     -5.622  0.3702E+01  0.1101E+02
     -5.597  0.4966E+01  0.1114E+02
     -5.572  0.4309E+01  0.1124E+02
     -5.548  0.3192E+01  0.1132E+02
     -5.523  0.3281E+01  0.1140E+02
     -5.498  0.6935E+01  0.1158E+02
     -5.473  0.3704E+01  0.1167E+02
     -5.448  0.4352E+01  0.1178E+02
     -5.424  0.4779E+01  0.1189E+02
     -5.399  0.5715E+01  0.1204E+02
     -5.374  0.2941E+01  0.1211E+02
     -5.349  0.5036E+01  0.1223E+02
     -5.325  0.5258E+01  0.1236E+02
     -5.300  0.4698E+01  0.1248E+02
     -5.275  0.4646E+01  0.1260E+02
     -5.250  0.5054E+01  0.1272E+02
     -5.225  0.3536E+01  0.1281E+02
     -5.201  0.4709E+01  0.1292E+02
     -5.176  0.3879E+01  0.1302E+02
     -5.151  0.4307E+01  0.1313E+02
     -5.126  0.4141E+01  0.1323E+02
     -5.101  0.4308E+01  0.1334E+02
     -5.077  0.2662E+01  0.1340E+02
     -5.052  0.3235E+01  0.1348E+02
     -5.027  0.2482E+01  0.1354E+02
     -5.002  0.3908E+01  0.1364E+02
     -4.977  0.2516E+01  0.1370E+02
     -4.953  0.2171E+01  0.1376E+02
     -4.928  0.3755E+01  0.1385E+02
     -4.903  0.4376E+01  0.1396E+02
     -4.878  0.2710E+01  0.1403E+02
     -4.854  0.1747E+01  0.1407E+02
     -4.829  0.1341E+01  0.1410E+02
     -4.804  0.1866E+01  0.1415E+02
     -4.779  0.2181E+01  0.1420E+02
     -4.754  0.5071E+01  0.1433E+02
     -4.730  0.2950E+01  0.1440E+02
     -4.705  0.4071E+01  0.1450E+02
     -4.680  0.2507E+01  0.1457E+02
     -4.655  0.2102E+01  0.1462E+02
     -4.630  0.3210E+01  0.1470E+02
     -4.606  0.4410E+01  0.1481E+02
     -4.581  0.3497E+01  0.1489E+02
     -4.556  0.3335E+01  0.1498E+02
     -4.531  0.3293E+01  0.1506E+02
     -4.507  0.3164E+01  0.1514E+02
     -4.482  0.2929E+01  0.1521E+02
     -4.457  0.2926E+01  0.1528E+02
     -4.432  0.4344E+01  0.1539E+02
     -4.407  0.4537E+01  0.1550E+02
     -4.383  0.3153E+01  0.1558E+02
     -4.358  0.2436E+01  0.1564E+02
     -4.333  0.2176E+01  0.1569E+02
     -4.308  0.3384E+01  0.1578E+02
     -4.283  0.2975E+01  0.1585E+02
     -4.259  0.2280E+01  0.1591E+02
     -4.234  0.2768E+01  0.1598E+02
     -4.209  0.3241E+01  0.1606E+02
     -4.184  0.3898E+01  0.1615E+02
     -4.160  0.2830E+01  0.1622E+02
     -4.135  0.2753E+01  0.1629E+02
     -4.110  0.2522E+01  0.1635E+02
     -4.085  0.3419E+01  0.1644E+02
     -4.060  0.3268E+01  0.1652E+02
     -4.036  0.2004E+01  0.1657E+02
     -4.011  0.2973E+01  0.1664E+02
     -3.986  0.1979E+01  0.1669E+02
     -3.961  0.5010E+01  0.1682E+02
     -3.936  0.2777E+01  0.1689E+02
     -3.912  0.1986E+01  0.1693E+02
     -3.887  0.3199E+01  0.1701E+02
     -3.862  0.2263E+01  0.1707E+02
     -3.837  0.1876E+01  0.1712E+02
     -3.812  0.4471E+01  0.1723E+02
     -3.788  0.5509E+01  0.1736E+02
     -3.763  0.3039E+01  0.1744E+02
     -3.738  0.2080E+01  0.1749E+02
     -3.713  0.1653E+01  0.1753E+02
     -3.689  0.2266E+01  0.1759E+02
     -3.664  0.2381E+01  0.1765E+02
     -3.639  0.3077E+01  0.1772E+02
     -3.614  0.3081E+01  0.1780E+02
     -3.589  0.2972E+01  0.1787E+02
     -3.565  0.3432E+01  0.1796E+02
     -3.540  0.2538E+01  0.1802E+02
     -3.515  0.3251E+01  0.1810E+02
     -3.490  0.2936E+01  0.1817E+02
     -3.465  0.2632E+01  0.1824E+02
     -3.441  0.2220E+01  0.1829E+02
     -3.416  0.1863E+01  0.1834E+02
     -3.391  0.2347E+01  0.1840E+02
     -3.366  0.3329E+01  0.1848E+02
     -3.342  0.3028E+01  0.1856E+02
     -3.317  0.2919E+01  0.1863E+02
     -3.292  0.2585E+01  0.1869E+02
     -3.267  0.3192E+01  0.1877E+02
     -3.242  0.3030E+01  0.1885E+02
     -3.218  0.2983E+01  0.1892E+02
     -3.193  0.4361E+01  0.1903E+02
     -3.168  0.1605E+01  0.1907E+02
     -3.143  0.2165E+01  0.1912E+02
     -3.118  0.9981E+00  0.1915E+02
     -3.094  0.2224E+01  0.1920E+02
     -3.069  0.2431E+01  0.1926E+02
     -3.044  0.3647E+01  0.1935E+02
     -3.019  0.3446E+01  0.1944E+02
     -2.994  0.3431E+01  0.1952E+02
     -2.970  0.3639E+01  0.1961E+02
     -2.945  0.2861E+01  0.1968E+02
     -2.920  0.1765E+01  0.1973E+02
     -2.895  0.2927E+01  0.1980E+02
     -2.871  0.3039E+01  0.1988E+02
     -2.846  0.2967E+01  0.1995E+02
     -2.821  0.3536E+01  0.2004E+02
     -2.796  0.2746E+01  0.2011E+02
     -2.771  0.2411E+01  0.2017E+02
     -2.747  0.1158E+01  0.2019E+02
     -2.722  0.2024E+01  0.2024E+02
     -2.697  0.3187E+01  0.2032E+02
     -2.672  0.2020E+01  0.2037E+02
     -2.647  0.2684E+01  0.2044E+02
     -2.623  0.2698E+01  0.2051E+02
     -2.598  0.1683E+01  0.2055E+02
     -2.573  0.3142E+01  0.2063E+02
     -2.548  0.2331E+01  0.2068E+02
     -2.524  0.3672E+01  0.2078E+02
     -2.499  0.3582E+01  0.2086E+02
     -2.474  0.3103E+01  0.2094E+02
     -2.449  0.3183E+01  0.2102E+02
     -2.424  0.3408E+01  0.2110E+02
     -2.400  0.2133E+01  0.2116E+02
     -2.375  0.3786E+01  0.2125E+02
     -2.350  0.2851E+01  0.2132E+02
     -2.325  0.2324E+01  0.2138E+02
     -2.300  0.3187E+01  0.2146E+02
     -2.276  0.2985E+01  0.2153E+02
     -2.251  0.4015E+01  0.2163E+02
     -2.226  0.5514E+01  0.2177E+02
     -2.201  0.5469E+01  0.2190E+02
     -2.177  0.3941E+01  0.2200E+02
     -2.152  0.1436E+01  0.2204E+02
     -2.127  0.2515E+01  0.2210E+02
     -2.102  0.6742E+01  0.2227E+02
     -2.077  0.2860E+01  0.2234E+02
     -2.053  0.3168E+01  0.2242E+02
     -2.028  0.2474E+01  0.2248E+02
     -2.003  0.4570E+01  0.2259E+02
     -1.978  0.3218E+01  0.2267E+02
     -1.953  0.2736E+01  0.2274E+02
     -1.929  0.3218E+01  0.2282E+02
     -1.904  0.4594E+01  0.2293E+02
     -1.879  0.6668E+01  0.2310E+02
     -1.854  0.6045E+01  0.2325E+02
     -1.829  0.6862E+01  0.2342E+02
     -1.805  0.4493E+01  0.2353E+02
     -1.780  0.2691E+01  0.2360E+02
     -1.755  0.5012E+01  0.2372E+02
     -1.730  0.8970E+01  0.2394E+02
     -1.706  0.6995E+01  0.2412E+02
     -1.681  0.4810E+01  0.2423E+02
     -1.656  0.4306E+01  0.2434E+02
     -1.631  0.4936E+01  0.2446E+02
     -1.606  0.7813E+01  0.2466E+02
     -1.582  0.6756E+01  0.2482E+02
     -1.557  0.7312E+01  0.2501E+02
     -1.532  0.5006E+01  0.2513E+02
     -1.507  0.5327E+01  0.2526E+02
     -1.482  0.7253E+01  0.2544E+02
     -1.458  0.7241E+01  0.2562E+02
     -1.433  0.6778E+01  0.2579E+02
     -1.408  0.4843E+01  0.2591E+02
     -1.383  0.4465E+01  0.2602E+02
     -1.359  0.7390E+01  0.2620E+02
     -1.334  0.5814E+01  0.2635E+02
     -1.309  0.3797E+01  0.2644E+02
     -1.284  0.5791E+01  0.2659E+02
     -1.259  0.4194E+01  0.2669E+02
     -1.235  0.3615E+01  0.2678E+02
     -1.210  0.3700E+01  0.2687E+02
     -1.185  0.4437E+01  0.2698E+02
     -1.160  0.6601E+01  0.2714E+02
     -1.135  0.9007E+01  0.2737E+02
     -1.111  0.8179E+01  0.2757E+02
     -1.086  0.6550E+01  0.2773E+02
     -1.061  0.4033E+01  0.2783E+02
     -1.036  0.2985E+01  0.2791E+02
     -1.011  0.3711E+01  0.2800E+02
     -0.987  0.2413E+01  0.2806E+02
     -0.962  0.2365E+01  0.2812E+02
     -0.937  0.1518E+01  0.2815E+02
     -0.912  0.3343E+01  0.2824E+02
     -0.888  0.2365E+01  0.2830E+02
     -0.863  0.1799E+01  0.2834E+02
     -0.838  0.3733E+01  0.2843E+02
     -0.813  0.3314E+01  0.2852E+02
     -0.788  0.1332E+01  0.2855E+02
     -0.764  0.2228E+01  0.2860E+02
     -0.739  0.4395E+01  0.2871E+02
     -0.714  0.4736E+01  0.2883E+02
     -0.689  0.2486E+01  0.2889E+02
     -0.664  0.4589E+01  0.2901E+02
     -0.640  0.4149E+01  0.2911E+02
     -0.615  0.3858E+01  0.2920E+02
     -0.590  0.6070E+01  0.2935E+02
     -0.565  0.5984E+01  0.2950E+02
     -0.541  0.4854E+01  0.2962E+02
     -0.516  0.5828E+01  0.2977E+02
     -0.491  0.7995E+01  0.2997E+02
     -0.466  0.8261E+01  0.3017E+02
     -0.441  0.4509E+01  0.3028E+02
     -0.417  0.6129E+01  0.3043E+02
     -0.392  0.4574E+01  0.3055E+02
     -0.367  0.4849E+01  0.3067E+02
     -0.342  0.5142E+01  0.3079E+02
     -0.317  0.4924E+01  0.3092E+02
     -0.293  0.8507E+01  0.3113E+02
     -0.268  0.5929E+01  0.3127E+02
     -0.243  0.5144E+01  0.3140E+02
     -0.218  0.8555E+01  0.3161E+02
     -0.194  0.7259E+01  0.3179E+02
     -0.169  0.4306E+01  0.3190E+02
     -0.144  0.5598E+01  0.3204E+02
     -0.119  0.7672E+01  0.3223E+02
     -0.094  0.8381E+01  0.3244E+02
     -0.070  0.7770E+01  0.3263E+02
     -0.045  0.4541E+01  0.3274E+02
     -0.020  0.6362E+01  0.3290E+02
      0.005  0.9209E+01  0.3313E+02
      0.030  0.4238E+01  0.3323E+02
      0.054  0.6471E+01  0.3339E+02
      0.079  0.5408E+01  0.3353E+02
      0.104  0.6833E+01  0.3370E+02
      0.129  0.8216E+01  0.3390E+02
      0.154  0.1001E+02  0.3415E+02
      0.178  0.1155E+02  0.3444E+02
      0.203  0.1209E+02  0.3474E+02
      0.228  0.9217E+01  0.3496E+02
      0.253  0.6518E+01  0.3513E+02
      0.277  0.7197E+01  0.3530E+02
      0.302  0.1164E+02  0.3559E+02
      0.327  0.6735E+01  0.3576E+02
      0.352  0.8935E+01  0.3598E+02
      0.377  0.6367E+01  0.3614E+02
      0.401  0.7578E+01  0.3633E+02
      0.426  0.9899E+01  0.3657E+02
      0.451  0.7875E+01  0.3677E+02
      0.476  0.5004E+01  0.3689E+02
      0.501  0.3739E+01  0.3698E+02
      0.525  0.4021E+01  0.3708E+02
      0.550  0.4663E+01  0.3720E+02
      0.575  0.3633E+01  0.3729E+02
      0.600  0.2648E+01  0.3735E+02
      0.624  0.3346E+01  0.3744E+02
      0.649  0.3455E+01  0.3752E+02
      0.674  0.3401E+01  0.3761E+02
      0.699  0.3503E+01  0.3769E+02
      0.724  0.2844E+01  0.3777E+02
      0.748  0.4124E+01  0.3787E+02
      0.773  0.3893E+01  0.3796E+02
      0.798  0.3729E+01  0.3806E+02
      0.823  0.3377E+01  0.3814E+02
      0.848  0.3824E+01  0.3823E+02
      0.872  0.3287E+01  0.3832E+02
      0.897  0.3728E+01  0.3841E+02
      0.922  0.4167E+01  0.3851E+02
      0.947  0.3094E+01  0.3859E+02
      0.971  0.2956E+01  0.3866E+02
      0.996  0.4141E+01  0.3876E+02
      1.021  0.2418E+01  0.3882E+02
      1.046  0.3378E+01  0.3891E+02
      1.071  0.2800E+01  0.3898E+02
      1.095  0.3543E+01  0.3907E+02
      1.120  0.3342E+01  0.3915E+02
      1.145  0.3736E+01  0.3924E+02
      1.170  0.1891E+01  0.3929E+02
      1.195  0.2916E+01  0.3936E+02
      1.219  0.3405E+01  0.3944E+02
      1.244  0.3843E+01  0.3954E+02
      1.269  0.3479E+01  0.3963E+02
      1.294  0.2611E+01  0.3969E+02
      1.319  0.4190E+01  0.3979E+02
      1.343  0.4020E+01  0.3989E+02
      1.368  0.5313E+01  0.4003E+02
      1.393  0.4049E+01  0.4013E+02
      1.418  0.4572E+01  0.4024E+02
      1.442  0.3753E+01  0.4033E+02
      1.467  0.4826E+01  0.4045E+02
      1.492  0.3338E+01  0.4053E+02
      1.517  0.3318E+01  0.4062E+02
      1.542  0.2893E+01  0.4069E+02
      1.566  0.4845E+01  0.4081E+02
      1.591  0.4965E+01  0.4093E+02
      1.616  0.3830E+01  0.4103E+02
      1.641  0.4621E+01  0.4114E+02
      1.666  0.4277E+01  0.4125E+02
      1.690  0.5311E+01  0.4138E+02
      1.715  0.2883E+01  0.4145E+02
      1.740  0.3776E+01  0.4154E+02
      1.765  0.3142E+01  0.4162E+02
      1.789  0.1941E+01  0.4167E+02
      1.814  0.1962E+01  0.4172E+02
      1.839  0.2551E+01  0.4178E+02
      1.864  0.2607E+01  0.4185E+02
      1.889  0.3077E+01  0.4192E+02
      1.913  0.2724E+01  0.4199E+02
      1.938  0.1722E+01  0.4203E+02
      1.963  0.2859E+01  0.4210E+02
      1.988  0.2614E+01  0.4217E+02
      2.013  0.3326E+01  0.4225E+02
      2.037  0.2634E+01  0.4232E+02
      2.062  0.2445E+01  0.4238E+02
      2.087  0.1449E+01  0.4241E+02
      2.112  0.1647E+01  0.4245E+02
      2.137  0.2607E+01  0.4252E+02
      2.161  0.2280E+01  0.4258E+02
      2.186  0.2579E+01  0.4264E+02
      2.211  0.2859E+01  0.4271E+02
      2.236  0.3296E+01  0.4279E+02
      2.260  0.2361E+01  0.4285E+02
      2.285  0.2979E+01  0.4292E+02
      2.310  0.2740E+01  0.4299E+02
      2.335  0.2043E+01  0.4304E+02
      2.360  0.2777E+01  0.4311E+02
      2.384  0.1867E+01  0.4316E+02
      2.409  0.2460E+01  0.4322E+02
      2.434  0.2190E+01  0.4327E+02
      2.459  0.1602E+01  0.4331E+02
      2.484  0.7433E+00  0.4333E+02
      2.508  0.5380E+00  0.4334E+02
      2.533  0.1328E+01  0.4338E+02
      2.558  0.5354E+00  0.4339E+02
      2.583  0.3411E+00  0.4340E+02
      2.607  0.1754E+00  0.4340E+02
      2.632  0.4412E+00  0.4341E+02
      2.657  0.1633E+00  0.4342E+02
      2.682  0.4240E+00  0.4343E+02
      2.707  0.4791E+00  0.4344E+02
      2.731  0.8980E+00  0.4346E+02
      2.756  0.7638E+00  0.4348E+02
      2.781  0.4119E+00  0.4349E+02
      2.806  0.4037E+00  0.4350E+02
      2.831  0.1915E+00  0.4351E+02
      2.855  0.4354E+00  0.4352E+02
      2.880  0.4734E+00  0.4353E+02
      2.905  0.6756E+00  0.4355E+02
      2.930  0.3816E+00  0.4356E+02
      2.954  0.5450E-03  0.4356E+02
      2.979  0.8519E-01  0.4356E+02
      3.004  0.4806E+00  0.4357E+02
      3.029  0.4533E+00  0.4358E+02
      3.054  0.3192E+00  0.4359E+02
      3.078  0.6544E+00  0.4360E+02
      3.103  0.1291E+01  0.4364E+02
      3.128  0.1018E+01  0.4366E+02
      3.153  0.9650E+00  0.4369E+02
      3.178  0.1332E+01  0.4372E+02
      3.202  0.7591E+00  0.4374E+02
      3.227  0.5628E+00  0.4375E+02
      3.252  0.9175E+00  0.4377E+02
      3.277  0.1545E+01  0.4381E+02
      3.302  0.3751E+00  0.4382E+02
      3.326  0.8039E-04  0.4382E+02
      3.351  0.2425E-12  0.4382E+02
      3.376  0.0000E+00  0.4382E+02
      3.401  0.0000E+00  0.4382E+02
      3.425  0.0000E+00  0.4382E+02
      3.450  0.0000E+00  0.4382E+02
      3.475  0.0000E+00  0.4382E+02
      3.500  0.0000E+00  0.4382E+02
      3.525  0.3398E-09  0.4382E+02
      3.549  0.2691E-02  0.4382E+02
      3.574  0.4221E+00  0.4383E+02
      3.599  0.4299E+00  0.4384E+02
      3.624  0.2149E+00  0.4385E+02
      3.649  0.4604E+00  0.4386E+02
      3.673  0.3890E+00  0.4387E+02
      3.698  0.3763E+00  0.4388E+02
      3.723  0.6315E+00  0.4389E+02
      3.748  0.6509E+00  0.4391E+02
      3.772  0.8425E-02  0.4391E+02
      3.797  0.5350E-07  0.4391E+02
      3.822  0.2276E-01  0.4391E+02
      3.847  0.5168E+00  0.4392E+02
      3.872  0.4824E+00  0.4394E+02
      3.896  0.4552E+00  0.4395E+02
      3.921  0.3529E+00  0.4396E+02
      3.946  0.4118E+00  0.4397E+02
      3.971  0.6211E+00  0.4398E+02
      3.996  0.7071E+00  0.4400E+02
      4.020  0.1600E-01  0.4400E+02
      4.045  0.2010E-07  0.4400E+02
      4.070  0.0000E+00  0.4400E+02
      4.095  0.0000E+00  0.4400E+02
      4.120  0.0000E+00  0.4400E+02
      4.144  0.0000E+00  0.4400E+02
      4.169  0.0000E+00  0.4400E+02
      4.194  0.0000E+00  0.4400E+02
      4.219  0.0000E+00  0.4400E+02
      4.243  0.3244E-10  0.4400E+02
      4.268  0.6161E-03  0.4400E+02
      4.293  0.1924E+00  0.4400E+02
      4.318  0.8222E-01  0.4401E+02
      4.343  0.4714E+00  0.4402E+02
      4.367  0.2176E-01  0.4402E+02
      4.392  0.1327E-01  0.4402E+02
      4.417  0.4166E+00  0.4403E+02
      4.442  0.5695E+00  0.4404E+02
      4.467  0.8991E+00  0.4407E+02
      4.491  0.1508E+00  0.4407E+02
      4.516  0.5050E-01  0.4407E+02
      4.541  0.2791E+00  0.4408E+02
      4.566  0.1168E+01  0.4411E+02
      4.590  0.8322E+00  0.4413E+02
      4.615  0.2319E+00  0.4413E+02
      4.640  0.1872E+00  0.4414E+02
      4.665  0.9899E+00  0.4416E+02
      4.690  0.9064E+00  0.4418E+02
      4.714  0.1082E+01  0.4421E+02
      4.739  0.6569E+00  0.4423E+02
      4.764  0.7663E+00  0.4425E+02
      4.789  0.1115E+01  0.4427E+02
      4.814  0.1368E+01  0.4431E+02
      4.838  0.6236E+00  0.4432E+02
      4.863  0.5940E+00  0.4434E+02
      4.888  0.5858E+00  0.4435E+02
      4.913  0.1002E+01  0.4438E+02
      4.937  0.1105E+01  0.4441E+02
      4.962  0.1262E+01  0.4444E+02
      4.987  0.1038E+01  0.4446E+02
      5.012  0.6504E+00  0.4448E+02
      5.037  0.1025E+01  0.4450E+02
      5.061  0.1941E+01  0.4455E+02
      5.086  0.9432E+00  0.4458E+02
      5.111  0.1842E+01  0.4462E+02
      5.136  0.1307E+01  0.4465E+02
      5.161  0.6467E+00  0.4467E+02
      5.185  0.1581E+01  0.4471E+02
      5.210  0.3023E+00  0.4472E+02
      5.235  0.2319E+01  0.4477E+02
      5.260  0.2225E+01  0.4483E+02
      5.285  0.1388E+01  0.4486E+02
      5.309  0.6123E+00  0.4488E+02
      5.334  0.1227E+01  0.4491E+02
      5.359  0.2591E+01  0.4497E+02
      5.384  0.1932E+01  0.4502E+02
      5.408  0.2066E+01  0.4507E+02
      5.433  0.2953E+01  0.4515E+02
      5.458  0.2591E+01  0.4521E+02
      5.483  0.2646E+01  0.4528E+02
      5.508  0.2965E+01  0.4535E+02
      5.532  0.2617E+01  0.4541E+02
      5.557  0.2876E+01  0.4548E+02
      5.582  0.1120E+01  0.4551E+02
      5.607  0.3159E+01  0.4559E+02
      5.632  0.3866E+01  0.4569E+02
      5.656  0.2500E+01  0.4575E+02
      5.681  0.3171E+01  0.4583E+02
      5.706  0.3504E+01  0.4591E+02
      5.731  0.3557E+01  0.4600E+02
      5.755  0.1851E+01  0.4605E+02
      5.780  0.4375E+01  0.4616E+02
      5.805  0.3919E+01  0.4625E+02
      5.830  0.3776E+01  0.4635E+02
      5.855  0.2178E+01  0.4640E+02
      5.879  0.3215E+01  0.4648E+02
      5.904  0.5099E+01  0.4661E+02
      5.929  0.4559E+01  0.4672E+02
      5.954  0.6747E+01  0.4689E+02
      5.979  0.4029E+01  0.4699E+02
      6.003  0.2494E+01  0.4705E+02
      6.028  0.5617E+01  0.4719E+02
      6.053  0.6383E+01  0.4735E+02
      6.078  0.4461E+01  0.4746E+02
      6.103  0.2783E+01  0.4753E+02
      6.127  0.5019E+01  0.4765E+02
      6.152  0.3065E+01  0.4773E+02
      6.177  0.4065E+01  0.4783E+02
      6.202  0.4321E+01  0.4793E+02
      6.226  0.5928E+01  0.4808E+02
      6.251  0.6017E+01  0.4823E+02
      6.276  0.4647E+01  0.4835E+02
      6.301  0.2612E+01  0.4841E+02
      6.326  0.4284E+01  0.4852E+02
      6.350  0.5493E+01  0.4865E+02
      6.375  0.4006E+01  0.4875E+02
      6.400  0.2689E+01  0.4882E+02
      6.425  0.3306E+01  0.4890E+02
      6.450  0.4891E+01  0.4902E+02
      6.474  0.3678E+01  0.4911E+02
      6.499  0.4112E+01  0.4922E+02
      6.524  0.2965E+01  0.4929E+02
      6.549  0.4430E+01  0.4940E+02
      6.573  0.6126E+01  0.4955E+02
      6.598  0.3481E+01  0.4964E+02
      6.623  0.2711E+01  0.4970E+02
      6.648  0.1992E+01  0.4975E+02
      6.673  0.2484E+01  0.4981E+02
      6.697  0.2603E+01  0.4988E+02
      6.722  0.4122E+01  0.4998E+02
      6.747  0.6500E+01  0.5014E+02
      6.772  0.2875E+01  0.5021E+02
      6.797  0.5243E+01  0.5034E+02
      6.821  0.3000E+01  0.5042E+02
      6.846  0.2750E+01  0.5049E+02
      6.871  0.4468E+01  0.5060E+02
      6.896  0.7078E+01  0.5077E+02
      6.920  0.4703E+01  0.5089E+02
      6.945  0.3766E+01  0.5098E+02
      6.970  0.5239E+01  0.5111E+02
      6.995  0.4216E+01  0.5122E+02
      7.020  0.4276E+01  0.5132E+02
      7.044  0.4807E+01  0.5144E+02
      7.069  0.4900E+01  0.5156E+02
      7.094  0.4153E+01  0.5167E+02
      7.119  0.3591E+01  0.5176E+02
      7.144  0.2725E+01  0.5182E+02
      7.168  0.4451E+01  0.5193E+02
      7.193  0.6255E+01  0.5209E+02
      7.218  0.3696E+01  0.5218E+02
      7.243  0.6151E+01  0.5233E+02
      7.268  0.4806E+01  0.5245E+02
      7.292  0.8141E+01  0.5265E+02
      7.317  0.5188E+01  0.5278E+02
      7.342  0.5309E+01  0.5291E+02
      7.367  0.4842E+01  0.5303E+02
      7.391  0.4012E+01  0.5313E+02
      7.416  0.3704E+01  0.5322E+02
      7.441  0.2555E+01  0.5329E+02
      7.466  0.3727E+01  0.5338E+02
      7.491  0.5036E+01  0.5351E+02
      7.515  0.5812E+01  0.5365E+02
      7.540  0.5078E+01  0.5378E+02
      7.565  0.4717E+01  0.5389E+02
      7.590  0.2808E+01  0.5396E+02
      7.615  0.1806E+01  0.5401E+02
      7.639  0.3707E+01  0.5410E+02
      7.664  0.3373E+01  0.5418E+02
      7.689  0.4855E+01  0.5430E+02
      7.714  0.3731E+01  0.5439E+02
      7.738  0.3130E+01  0.5447E+02
      7.763  0.4493E+01  0.5458E+02
      7.788  0.1552E+01  0.5462E+02
      7.813  0.2082E+01  0.5467E+02
      7.838  0.2415E+01  0.5473E+02
      7.862  0.2786E+01  0.5480E+02
      7.887  0.5342E+01  0.5494E+02
      7.912  0.4416E+01  0.5504E+02
      7.937  0.3277E+01  0.5513E+02
      7.962  0.9129E+00  0.5515E+02
      7.986  0.1955E+01  0.5520E+02
      8.011  0.4314E+01  0.5530E+02
      8.036  0.3723E+01  0.5540E+02
      8.061  0.2394E+01  0.5546E+02
      8.085  0.5282E+01  0.5559E+02
      8.110  0.5786E+01  0.5573E+02
      8.135  0.4157E+01  0.5583E+02
      8.160  0.3214E+01  0.5591E+02
      8.185  0.3092E+01  0.5599E+02
      8.209  0.4990E+01  0.5611E+02
      8.234  0.4086E+01  0.5621E+02
      8.259  0.3387E+01  0.5630E+02
      8.284  0.3843E+01  0.5639E+02
      8.309  0.2715E+01  0.5646E+02
      8.333  0.3370E+01  0.5654E+02
      8.358  0.5338E+01  0.5668E+02
      8.383  0.1845E+01  0.5672E+02
      8.408  0.4024E+01  0.5682E+02
      8.433  0.4340E+01  0.5693E+02
      8.457  0.4736E+01  0.5705E+02
      8.482  0.5637E+01  0.5719E+02
      8.507  0.5014E+01  0.5731E+02
      8.532  0.3732E+01  0.5740E+02
      8.556  0.3963E+01  0.5750E+02
      8.581  0.1946E+01  0.5755E+02
      8.606  0.3584E+01  0.5764E+02
      8.631  0.4887E+01  0.5776E+02
      8.656  0.5974E+01  0.5791E+02
      8.680  0.5370E+01  0.5804E+02
      8.705  0.3205E+01  0.5812E+02
      8.730  0.3941E+01  0.5822E+02
      8.755  0.2573E+01  0.5828E+02
      8.780  0.3689E+01  0.5837E+02
      8.804  0.4700E+01  0.5849E+02
      8.829  0.5216E+01  0.5862E+02
      8.854  0.4169E+01  0.5872E+02
      8.879  0.4775E+01  0.5884E+02
      8.903  0.6070E+01  0.5899E+02
      8.928  0.5765E+01  0.5913E+02
      8.953  0.7819E+01  0.5933E+02
      8.978  0.4457E+01  0.5944E+02
      9.003  0.4791E+01  0.5956E+02
      9.027  0.5703E+01  0.5970E+02
      9.052  0.5646E+01  0.5984E+02
      9.077  0.5393E+01  0.5997E+02
      9.102  0.5396E+01  0.6011E+02
      9.127  0.6082E+01  0.6026E+02
      9.151  0.7156E+01  0.6043E+02
      9.176  0.2905E+01  0.6051E+02
      9.201  0.5610E+01  0.6065E+02
      9.226  0.4098E+01  0.6075E+02
      9.251  0.5568E+01  0.6089E+02
      9.275  0.6693E+01  0.6105E+02
      9.300  0.4257E+01  0.6116E+02
      9.325  0.4008E+01  0.6126E+02
      9.350  0.6050E+01  0.6141E+02
      9.374  0.4221E+01  0.6151E+02
      9.399  0.5403E+01  0.6164E+02
      9.424  0.4428E+01  0.6175E+02
      9.449  0.4002E+01  0.6185E+02
      9.474  0.5583E+01  0.6199E+02
      9.498  0.3352E+01  0.6207E+02
      9.523  0.4202E+01  0.6218E+02
      9.548  0.4006E+01  0.6228E+02
      9.573  0.7412E+01  0.6246E+02
      9.598  0.4720E+01  0.6258E+02
      9.622  0.5050E+01  0.6270E+02
      9.647  0.5468E+01  0.6284E+02
      9.672  0.6889E+01  0.6301E+02
      9.697  0.3991E+01  0.6311E+02
      9.721  0.5715E+01  0.6325E+02
      9.746  0.4716E+01  0.6337E+02
      9.771  0.5264E+01  0.6350E+02
      9.796  0.5380E+01  0.6363E+02
      9.821  0.5218E+01  0.6376E+02
      9.845  0.4788E+01  0.6388E+02
      9.870  0.6466E+01  0.6404E+02
      9.895  0.5056E+01  0.6417E+02
      9.920  0.4846E+01  0.6429E+02
      9.945  0.3070E+01  0.6436E+02
      9.969  0.5272E+01  0.6449E+02
      9.994  0.2288E+01  0.6455E+02
     10.019  0.1621E+01  0.6459E+02
     10.044  0.3512E+01  0.6468E+02
     10.068  0.3901E+01  0.6477E+02
     10.093  0.5701E+01  0.6491E+02
     10.118  0.5148E+01  0.6504E+02
     10.143  0.6228E+01  0.6520E+02
     10.168  0.6185E+01  0.6535E+02
     10.192  0.4556E+01  0.6546E+02
     10.217  0.5688E+01  0.6560E+02
     10.242  0.5297E+01  0.6573E+02
     10.267  0.5856E+01  0.6588E+02
     10.292  0.4031E+01  0.6598E+02
     10.316  0.3634E+01  0.6607E+02
     10.341  0.2497E+01  0.6613E+02
     10.366  0.3413E+01  0.6622E+02
     10.391  0.6327E+01  0.6637E+02
     10.416  0.4885E+01  0.6649E+02
     10.440  0.5217E+01  0.6662E+02
     10.465  0.7813E+01  0.6682E+02
     10.490  0.6542E+01  0.6698E+02
     10.515  0.5625E+01  0.6712E+02
     10.539  0.4224E+01  0.6722E+02
     10.564  0.4600E+01  0.6734E+02
     10.589  0.3407E+01  0.6742E+02
     10.614  0.5059E+01  0.6755E+02
     10.639  0.4895E+01  0.6767E+02
     10.663  0.4447E+01  0.6778E+02
     10.688  0.2160E+01  0.6783E+02
     10.713  0.1933E+01  0.6788E+02
     10.738  0.6094E+01  0.6803E+02
     10.763  0.3139E+01  0.6811E+02
     10.787  0.3715E+01  0.6820E+02
     10.812  0.3555E+01  0.6829E+02
     10.837  0.1118E+01  0.6832E+02
     10.862  0.2739E+01  0.6839E+02
     10.886  0.4986E+01  0.6851E+02
     10.911  0.4947E+01  0.6863E+02
     10.936  0.4223E+01  0.6874E+02
     10.961  0.5169E+01  0.6886E+02
     10.986  0.2418E+01  0.6892E+02
     11.010  0.3343E+01  0.6901E+02
     11.035  0.9063E+01  0.6923E+02
     11.060  0.4474E+01  0.6934E+02
     11.085  0.5545E+01  0.6948E+02
     11.110  0.6916E+01  0.6965E+02
     11.134  0.4949E+01  0.6977E+02
     11.159  0.3649E+01  0.6986E+02
     11.184  0.4333E+01  0.6997E+02
     11.209  0.6759E+01  0.7014E+02
     11.234  0.7807E+01  0.7033E+02
     11.258  0.5413E+01  0.7047E+02
     11.283  0.6054E+01  0.7062E+02
     11.308  0.6442E+01  0.7078E+02
     11.333  0.4216E+01  0.7088E+02
     11.357  0.5598E+01  0.7102E+02
     11.382  0.5493E+01  0.7116E+02
     11.407  0.4185E+01  0.7126E+02
     11.432  0.6586E+01  0.7142E+02
     11.457  0.4010E+01  0.7152E+02
     11.481  0.4826E+01  0.7164E+02
     11.506  0.5372E+01  0.7178E+02
     11.531  0.3435E+01  0.7186E+02
     11.556  0.3697E+01  0.7195E+02
     11.581  0.5613E+01  0.7209E+02
     11.605  0.4118E+01  0.7219E+02
     11.630  0.4044E+01  0.7229E+02
     11.655  0.4351E+01  0.7240E+02
     11.680  0.5831E+01  0.7255E+02
     11.704  0.5203E+01  0.7268E+02
     11.729  0.4310E+01  0.7278E+02
     11.754  0.6159E+01  0.7293E+02
     11.779  0.6447E+01  0.7309E+02
     11.804  0.5196E+01  0.7322E+02
     11.828  0.3704E+01  0.7332E+02
     11.853  0.5570E+01  0.7345E+02
     11.878  0.5210E+01  0.7358E+02
     11.903  0.4843E+01  0.7370E+02
     11.928  0.5386E+01  0.7384E+02
     11.952  0.7942E+01  0.7403E+02
     11.977  0.6165E+01  0.7419E+02
     12.002  0.6618E+01  0.7435E+02
     12.027  0.4956E+01  0.7447E+02
     12.051  0.3136E+01  0.7455E+02
     12.076  0.5965E+01  0.7470E+02
     12.101  0.7325E+01  0.7488E+02
     12.126  0.6791E+01  0.7505E+02
     12.151  0.7246E+01  0.7523E+02
     12.175  0.6275E+01  0.7538E+02
     12.200  0.4192E+01  0.7549E+02
     12.225  0.3604E+01  0.7558E+02
     12.250  0.6540E+01  0.7574E+02
     12.275  0.5015E+01  0.7586E+02
     12.299  0.6490E+01  0.7602E+02
     12.324  0.6062E+01  0.7617E+02
     12.349  0.5980E+01  0.7632E+02
     12.374  0.4744E+01  0.7644E+02
     12.399  0.5083E+01  0.7657E+02
     12.423  0.6387E+01  0.7672E+02
     12.448  0.5065E+01  0.7685E+02
     12.473  0.5388E+01  0.7698E+02
     12.498  0.4588E+01  0.7710E+02
     12.522  0.5933E+01  0.7724E+02
     12.547  0.5736E+01  0.7739E+02
     12.572  0.5983E+01  0.7753E+02
     12.597  0.5898E+01  0.7768E+02
     12.622  0.7152E+01  0.7786E+02
     12.646  0.5807E+01  0.7800E+02
     12.671  0.7563E+01  0.7819E+02
     12.696  0.7005E+01  0.7836E+02
     12.721  0.6439E+01  0.7852E+02
     12.746  0.6009E+01  0.7867E+02
     12.770  0.5168E+01  0.7880E+02
     12.795  0.4832E+01  0.7892E+02
     12.820  0.4250E+01  0.7902E+02
     12.845  0.4790E+01  0.7914E+02
     12.869  0.5448E+01  0.7928E+02
     12.894  0.5538E+01  0.7942E+02
     12.919  0.6017E+01  0.7956E+02
     12.944  0.6092E+01  0.7972E+02
     12.969  0.6579E+01  0.7988E+02
     12.993  0.3560E+01  0.7997E+02
     13.018  0.5655E+01  0.8011E+02
     13.043  0.5762E+01  0.8025E+02
     13.068  0.5994E+01  0.8040E+02
     13.093  0.5831E+01  0.8054E+02
     13.117  0.6535E+01  0.8071E+02
     13.142  0.4295E+01  0.8081E+02
     13.167  0.6108E+01  0.8096E+02
     13.192  0.8536E+01  0.8117E+02
     13.217  0.9602E+01  0.8141E+02
     13.241  0.5572E+01  0.8155E+02
     13.266  0.4934E+01  0.8167E+02
     13.291  0.4387E+01  0.8178E+02
     13.316  0.5293E+01  0.8191E+02
     13.340  0.4410E+01  0.8202E+02
     13.365  0.4977E+01  0.8215E+02
     13.390  0.6188E+01  0.8230E+02
     13.415  0.4876E+01  0.8242E+02
     13.440  0.7808E+01  0.8261E+02
     13.464  0.4273E+01  0.8272E+02
     13.489  0.7387E+01  0.8290E+02
     13.514  0.7885E+01  0.8310E+02
     13.539  0.5663E+01  0.8324E+02
     13.564  0.5557E+01  0.8338E+02
     13.588  0.3953E+01  0.8347E+02
     13.613  0.5780E+01  0.8362E+02
     13.638  0.4163E+01  0.8372E+02
     13.663  0.4835E+01  0.8384E+02
     13.687  0.6991E+01  0.8401E+02
     13.712  0.4533E+01  0.8413E+02
     13.737  0.4286E+01  0.8423E+02
     13.762  0.5883E+01  0.8438E+02
     13.787  0.8390E+01  0.8459E+02
     13.811  0.9290E+01  0.8482E+02
     13.836  0.6968E+01  0.8499E+02
     13.861  0.2328E+01  0.8505E+02
     13.886  0.3570E+01  0.8514E+02
     13.911  0.6442E+01  0.8530E+02
     13.935  0.3143E+01  0.8537E+02
     13.960  0.5261E+01  0.8550E+02
     13.985  0.8023E+01  0.8570E+02
     14.010  0.5445E+01  0.8584E+02
     14.034  0.4907E+01  0.8596E+02
     14.059  0.6277E+01  0.8611E+02
     14.084  0.5353E+01  0.8625E+02
     14.109  0.3305E+01  0.8633E+02
     14.134  0.4816E+01  0.8645E+02
     14.158  0.5380E+01  0.8658E+02
     14.183  0.5546E+01  0.8672E+02
     14.208  0.4966E+01  0.8684E+02
     14.233  0.2834E+01  0.8691E+02
     14.258  0.6233E+01  0.8707E+02
     14.282  0.7146E+01  0.8724E+02
     14.307  0.6508E+01  0.8741E+02
     14.332  0.4526E+01  0.8752E+02
     14.357  0.4796E+01  0.8764E+02
     14.382  0.3809E+01  0.8773E+02
     14.406  0.4973E+01  0.8785E+02
     14.431  0.3403E+01  0.8794E+02
     14.456  0.6024E+01  0.8809E+02
     14.481  0.5407E+01  0.8822E+02
     14.505  0.3875E+01  0.8832E+02
     14.530  0.5590E+01  0.8846E+02
     14.555  0.3971E+01  0.8856E+02
     14.580  0.5645E+01  0.8870E+02
     14.605  0.5143E+01  0.8882E+02
     14.629  0.6928E+01  0.8899E+02
     14.654  0.6756E+01  0.8916E+02
     14.679  0.3761E+01  0.8925E+02
     14.704  0.5141E+01  0.8938E+02
     14.729  0.4320E+01  0.8949E+02
     14.753  0.2467E+01  0.8955E+02
     14.778  0.5748E+01  0.8969E+02
     14.803  0.6005E+01  0.8984E+02
     14.828  0.3948E+01  0.8994E+02
     14.852  0.2470E+01  0.9000E+02
     14.877  0.2906E+01  0.9007E+02
     14.902  0.4595E+01  0.9019E+02
     14.927  0.5416E+01  0.9032E+02
     14.952  0.6804E+01  0.9049E+02
     14.976  0.4977E+01  0.9061E+02
     15.001  0.4950E+01  0.9074E+02
     15.026  0.6937E+01  0.9091E+02
     15.051  0.8900E+01  0.9113E+02
     15.076  0.4322E+01  0.9124E+02
     15.100  0.5050E+01  0.9136E+02
     15.125  0.7597E+01  0.9155E+02
     15.150  0.6361E+01  0.9171E+02
     15.175  0.3594E+01  0.9180E+02
     15.200  0.6053E+01  0.9195E+02
     15.224  0.5026E+01  0.9207E+02
     15.249  0.6814E+01  0.9224E+02
     15.274  0.6874E+01  0.9241E+02
     15.299  0.5174E+01  0.9254E+02
     15.323  0.3937E+01  0.9264E+02
     15.348  0.4550E+01  0.9275E+02
     15.373  0.6300E+01  0.9290E+02
     15.398  0.7887E+01  0.9310E+02
     15.423  0.5372E+01  0.9323E+02
     15.447  0.9200E+01  0.9346E+02
     15.472  0.7497E+01  0.9365E+02
     15.497  0.5448E+01  0.9378E+02
     15.522  0.6435E+01  0.9394E+02
     15.547  0.5948E+01  0.9409E+02
     15.571  0.5945E+01  0.9424E+02
     15.596  0.5667E+01  0.9438E+02
     15.621  0.5761E+01  0.9452E+02
     15.646  0.5248E+01  0.9465E+02
     15.670  0.4319E+01  0.9476E+02
     15.695  0.7603E+01  0.9495E+02
     15.720  0.6467E+01  0.9511E+02
     15.745  0.3071E+01  0.9518E+02
     15.770  0.5513E+01  0.9532E+02
     15.794  0.5074E+01  0.9544E+02
     15.819  0.3400E+01  0.9553E+02
     15.844  0.4721E+01  0.9565E+02
     15.869  0.6572E+01  0.9581E+02
     15.894  0.7220E+01  0.9599E+02
     15.918  0.6229E+01  0.9614E+02
     15.943  0.6208E+01  0.9630E+02
     15.968  0.6668E+01  0.9646E+02
     15.993  0.3588E+01  0.9655E+02
     16.017  0.3711E+01  0.9664E+02
     16.042  0.3773E+01  0.9674E+02
     16.067  0.5528E+01  0.9687E+02
     16.092  0.4977E+01  0.9700E+02
     16.117  0.7243E+01  0.9718E+02
     16.141  0.6653E+01  0.9734E+02
     16.166  0.6783E+01  0.9751E+02
     16.191  0.5588E+01  0.9765E+02
     16.216  0.7323E+01  0.9783E+02
     16.241  0.4126E+01  0.9793E+02
     16.265  0.5842E+01  0.9808E+02
     16.290  0.4240E+01  0.9818E+02
     16.315  0.5934E+01  0.9833E+02
     16.340  0.8908E+01  0.9855E+02
     16.365  0.5921E+01  0.9870E+02
     16.389  0.6825E+01  0.9886E+02
     16.414  0.4080E+01  0.9897E+02
     16.439  0.6096E+01  0.9912E+02
     16.464  0.5160E+01  0.9924E+02
     16.488  0.9714E+01  0.9949E+02
     16.513  0.7909E+01  0.9968E+02
     16.538  0.7261E+01  0.9986E+02
     16.563  0.8429E+01  0.1001E+03
     16.588  0.8148E+01  0.1003E+03
     16.612  0.5494E+01  0.1004E+03
     16.637  0.5748E+01  0.1006E+03
     16.662  0.7118E+01  0.1007E+03
     16.687  0.6657E+01  0.1009E+03
     16.712  0.6551E+01  0.1011E+03
     16.736  0.7917E+01  0.1013E+03
     16.761  0.6582E+01  0.1014E+03
     16.786  0.5914E+01  0.1016E+03
     16.811  0.8885E+01  0.1018E+03
     16.835  0.8417E+01  0.1020E+03
     16.860  0.6888E+01  0.1022E+03
     16.885  0.5963E+01  0.1023E+03
     16.910  0.6085E+01  0.1025E+03
     16.935  0.1079E+02  0.1027E+03
     16.959  0.6687E+01  0.1029E+03
     16.984  0.5504E+01  0.1030E+03
     17.009  0.5575E+01  0.1032E+03
     17.034  0.6269E+01  0.1033E+03
     17.059  0.1058E+02  0.1036E+03
     17.083  0.7154E+01  0.1038E+03
     17.108  0.5467E+01  0.1039E+03
     17.133  0.8494E+01  0.1041E+03
     17.158  0.4987E+01  0.1042E+03
     17.182  0.5604E+01  0.1044E+03
     17.207  0.7068E+01  0.1045E+03
     17.232  0.8325E+01  0.1048E+03
     17.257  0.7754E+01  0.1049E+03
     17.282  0.9134E+01  0.1052E+03
     17.306  0.7023E+01  0.1053E+03
     17.331  0.1140E+02  0.1056E+03
     17.356  0.9405E+01  0.1059E+03
     17.381  0.7382E+01  0.1060E+03
     17.406  0.9640E+01  0.1063E+03
     17.430  0.8793E+01  0.1065E+03
     17.455  0.7403E+01  0.1067E+03
     17.480  0.6444E+01  0.1068E+03
     17.505  0.7247E+01  0.1070E+03
     17.530  0.6830E+01  0.1072E+03
     17.554  0.8891E+01  0.1074E+03
     17.579  0.4958E+01  0.1075E+03
     17.604  0.1017E+02  0.1078E+03
     17.629  0.7323E+01  0.1080E+03
     17.653  0.7289E+01  0.1081E+03
     17.678  0.7381E+01  0.1083E+03
     17.703  0.7186E+01  0.1085E+03
     17.728  0.7573E+01  0.1087E+03
     17.753  0.7302E+01  0.1089E+03
     17.777  0.6150E+01  0.1090E+03
     17.802  0.6692E+01  0.1092E+03
     17.827  0.3597E+01  0.1093E+03
     17.852  0.5655E+01  0.1094E+03
     17.877  0.8040E+01  0.1096E+03
     17.901  0.5402E+01  0.1098E+03
     17.926  0.6669E+01  0.1099E+03
     17.951  0.3987E+01  0.1100E+03
     17.976  0.6453E+01  0.1102E+03
     18.000  0.7469E+01  0.1104E+03
     18.025  0.7712E+01  0.1106E+03
     18.050  0.9512E+01  0.1108E+03
     18.075  0.7059E+01  0.1110E+03
     18.100  0.7086E+01  0.1111E+03
     18.124  0.1012E+02  0.1114E+03
     18.149  0.6327E+01  0.1116E+03
     18.174  0.4238E+01  0.1117E+03
     18.199  0.4102E+01  0.1118E+03
     18.224  0.4734E+01  0.1119E+03
     18.248  0.5093E+01  0.1120E+03
     18.273  0.7010E+01  0.1122E+03
     18.298  0.6525E+01  0.1123E+03
     18.323  0.4758E+01  0.1125E+03
     18.348  0.4779E+01  0.1126E+03
     18.372  0.5070E+01  0.1127E+03
     18.397  0.5348E+01  0.1128E+03
     18.422  0.4385E+01  0.1129E+03
     18.447  0.5078E+01  0.1131E+03
     18.471  0.4281E+01  0.1132E+03
     18.496  0.4751E+01  0.1133E+03
     18.521  0.6356E+01  0.1135E+03
     18.546  0.5064E+01  0.1136E+03
     18.571  0.5964E+01  0.1137E+03
     18.595  0.4934E+01  0.1138E+03
     18.620  0.2718E+01  0.1139E+03
     18.645  0.4238E+01  0.1140E+03
     18.670  0.4819E+01  0.1141E+03
     18.695  0.6873E+01  0.1143E+03
     18.719  0.3504E+01  0.1144E+03
     18.744  0.5835E+01  0.1145E+03
     18.769  0.4900E+01  0.1147E+03
     18.794  0.3425E+01  0.1147E+03
     18.818  0.5228E+01  0.1149E+03
     18.843  0.5637E+01  0.1150E+03
     18.868  0.4037E+01  0.1151E+03
     18.893  0.6306E+01  0.1153E+03
     18.918  0.7035E+01  0.1154E+03
     18.942  0.6875E+01  0.1156E+03
     18.967  0.6287E+01  0.1158E+03
     18.992  0.6951E+01  0.1159E+03
     19.017  0.4769E+01  0.1161E+03
     19.042  0.2611E+01  0.1161E+03
     19.066  0.3478E+01  0.1162E+03
     19.091  0.6168E+01  0.1164E+03
     19.116  0.5398E+01  0.1165E+03
     19.141  0.6004E+01  0.1167E+03
     19.165  0.4121E+01  0.1168E+03
     19.190  0.3810E+01  0.1168E+03
     19.215  0.6366E+01  0.1170E+03
     19.240  0.5525E+01  0.1171E+03
     19.265  0.5339E+01  0.1173E+03
     19.289  0.6827E+01  0.1174E+03
     19.314  0.6487E+01  0.1176E+03
     19.339  0.6109E+01  0.1178E+03
     19.364  0.4864E+01  0.1179E+03
     19.389  0.5261E+01  0.1180E+03
     19.413  0.4678E+01  0.1181E+03
     19.438  0.5031E+01  0.1182E+03
     19.463  0.5818E+01  0.1184E+03
     19.488  0.4678E+01  0.1185E+03
     19.513  0.4712E+01  0.1186E+03
     19.537  0.5090E+01  0.1188E+03
     19.562  0.3012E+01  0.1188E+03
     19.587  0.2900E+01  0.1189E+03
     19.612  0.3587E+01  0.1190E+03
     19.636  0.2918E+01  0.1191E+03
     19.661  0.3723E+01  0.1192E+03
     19.686  0.3708E+01  0.1192E+03
     19.711  0.4903E+01  0.1194E+03
     19.736  0.4313E+01  0.1195E+03
     19.760  0.5851E+01  0.1196E+03
     19.785  0.5060E+01  0.1197E+03
     19.810  0.6349E+01  0.1199E+03
     19.835  0.5765E+01  0.1200E+03
     19.860  0.4251E+01  0.1201E+03
     19.884  0.4312E+01  0.1203E+03
     19.909  0.5675E+01  0.1204E+03
     19.934  0.7221E+01  0.1206E+03
     19.959  0.4743E+01  0.1207E+03
     19.983  0.4000E+01  0.1208E+03
     20.008  0.4029E+01  0.1209E+03
     20.033  0.5041E+01  0.1210E+03
     20.058  0.2824E+01  0.1211E+03
     20.083  0.4110E+01  0.1212E+03
     20.107  0.3966E+01  0.1213E+03
     20.132  0.3310E+01  0.1214E+03
     20.157  0.5507E+01  0.1215E+03
     20.182  0.5514E+01  0.1216E+03
     20.207  0.5987E+01  0.1218E+03
     20.231  0.5324E+01  0.1219E+03
     20.256  0.5912E+01  0.1221E+03
     20.281  0.3487E+01  0.1222E+03
     20.306  0.4507E+01  0.1223E+03
     20.331  0.4274E+01  0.1224E+03
     20.355  0.6382E+01  0.1225E+03
     20.380  0.5038E+01  0.1227E+03
     20.405  0.4350E+01  0.1228E+03
     20.430  0.3836E+01  0.1229E+03
     20.454  0.3463E+01  0.1229E+03
     20.479  0.8665E+01  0.1232E+03
     20.504  0.5369E+01  0.1233E+03
     20.529  0.4193E+01  0.1234E+03
     20.554  0.3086E+01  0.1235E+03
     20.578  0.5536E+01  0.1236E+03
     20.603  0.5197E+01  0.1237E+03
     20.628  0.5023E+01  0.1239E+03
     20.653  0.4529E+01  0.1240E+03
     20.678  0.4923E+01  0.1241E+03
     20.702  0.3580E+01  0.1242E+03
     20.727  0.5392E+01  0.1243E+03
     20.752  0.5707E+01  0.1245E+03
     20.777  0.5890E+01  0.1246E+03
     20.801  0.6101E+01  0.1248E+03
     20.826  0.4192E+01  0.1249E+03
     20.851  0.5018E+01  0.1250E+03
     20.876  0.4308E+01  0.1251E+03
     20.901  0.5696E+01  0.1252E+03
     20.925  0.6663E+01  0.1254E+03
     20.950  0.5086E+01  0.1255E+03
     20.975  0.5101E+01  0.1257E+03
     21.000  0.4663E+01  0.1258E+03
     21.025  0.5389E+01  0.1259E+03
     21.049  0.4120E+01  0.1260E+03
     21.074  0.5691E+01  0.1261E+03
     21.099  0.3991E+01  0.1262E+03
     21.124  0.6230E+01  0.1264E+03
     21.148  0.5737E+01  0.1265E+03
     21.173  0.5442E+01  0.1267E+03
     21.198  0.5743E+01  0.1268E+03
     21.223  0.5977E+01  0.1270E+03
     21.248  0.5843E+01  0.1271E+03
     21.272  0.6042E+01  0.1273E+03
     21.297  0.6878E+01  0.1274E+03
     21.322  0.6141E+01  0.1276E+03
     21.347  0.5705E+01  0.1277E+03
     21.372  0.4775E+01  0.1278E+03
     21.396  0.4475E+01  0.1280E+03
     21.421  0.4092E+01  0.1281E+03
     21.446  0.4265E+01  0.1282E+03
     21.471  0.5259E+01  0.1283E+03
     21.496  0.6894E+01  0.1285E+03
     21.520  0.6459E+01  0.1286E+03
     21.545  0.4021E+01  0.1287E+03
     21.570  0.4091E+01  0.1288E+03
     21.595  0.3730E+01  0.1289E+03
     21.619  0.5998E+01  0.1291E+03
     21.644  0.6763E+01  0.1292E+03
     21.669  0.5582E+01  0.1294E+03
     21.694  0.3737E+01  0.1295E+03
     21.719  0.5168E+01  0.1296E+03
     21.743  0.6012E+01  0.1297E+03
     21.768  0.7198E+01  0.1299E+03
     21.793  0.5793E+01  0.1301E+03
     21.818  0.4747E+01  0.1302E+03
     21.843  0.6114E+01  0.1303E+03
     21.867  0.5114E+01  0.1305E+03
     21.892  0.5622E+01  0.1306E+03
     21.917  0.8241E+01  0.1308E+03
     21.942  0.6577E+01  0.1310E+03
     21.966  0.6531E+01  0.1311E+03
     21.991  0.4968E+01  0.1312E+03
     22.016  0.4861E+01  0.1314E+03
     22.041  0.7566E+01  0.1316E+03
     22.066  0.8045E+01  0.1318E+03
     22.090  0.7704E+01  0.1319E+03
     22.115  0.5897E+01  0.1321E+03
     22.140  0.6941E+01  0.1323E+03
     22.165  0.4369E+01  0.1324E+03
     22.190  0.6811E+01  0.1325E+03
     22.214  0.5508E+01  0.1327E+03
     22.239  0.4295E+01  0.1328E+03
     22.264  0.5189E+01  0.1329E+03
     22.289  0.5152E+01  0.1330E+03
     22.314  0.4736E+01  0.1332E+03
     22.338  0.6662E+01  0.1333E+03
     22.363  0.5666E+01  0.1335E+03
     22.388  0.5427E+01  0.1336E+03
     22.413  0.4951E+01  0.1337E+03
     22.437  0.6444E+01  0.1339E+03
     22.462  0.5465E+01  0.1340E+03
     22.487  0.5321E+01  0.1341E+03
     22.512  0.6714E+01  0.1343E+03
     22.537  0.6299E+01  0.1345E+03
     22.561  0.5676E+01  0.1346E+03
     22.586  0.5382E+01  0.1347E+03
     22.611  0.3974E+01  0.1348E+03
     22.636  0.5793E+01  0.1350E+03
     22.661  0.5759E+01  0.1351E+03
     22.685  0.6472E+01  0.1353E+03
     22.710  0.4042E+01  0.1354E+03
     22.735  0.4607E+01  0.1355E+03
     22.760  0.5623E+01  0.1356E+03
     22.784  0.5938E+01  0.1358E+03
     22.809  0.6917E+01  0.1360E+03
     22.834  0.8393E+01  0.1362E+03
     22.859  0.6188E+01  0.1363E+03
     22.884  0.7966E+01  0.1365E+03
     22.908  0.7992E+01  0.1367E+03
     22.933  0.4783E+01  0.1368E+03
     22.958  0.7077E+01  0.1370E+03
     22.983  0.7307E+01  0.1372E+03
     23.008  0.8790E+01  0.1374E+03
     23.032  0.6257E+01  0.1376E+03
     23.057  0.6557E+01  0.1377E+03
     23.082  0.7361E+01  0.1379E+03
     23.107  0.5036E+01  0.1380E+03
     23.131  0.3700E+01  0.1381E+03
     23.156  0.4737E+01  0.1382E+03
     23.181  0.6081E+01  0.1384E+03
     23.206  0.3191E+01  0.1385E+03
     23.231  0.5798E+01  0.1386E+03
     23.255  0.7529E+01  0.1388E+03
     23.280  0.7116E+01  0.1390E+03
     23.305  0.4940E+01  0.1391E+03
     23.330  0.9609E+01  0.1393E+03
     23.355  0.6594E+01  0.1395E+03
     23.379  0.6894E+01  0.1397E+03
     23.404  0.4984E+01  0.1398E+03
     23.429  0.6115E+01  0.1400E+03
     23.454  0.6580E+01  0.1401E+03
     23.479  0.8434E+01  0.1403E+03
     23.503  0.5991E+01  0.1405E+03
     23.528  0.5431E+01  0.1406E+03
     23.553  0.5602E+01  0.1407E+03
     23.578  0.5943E+01  0.1409E+03
     23.602  0.3817E+01  0.1410E+03
     23.627  0.6575E+01  0.1412E+03
     23.652  0.6642E+01  0.1413E+03
     23.677  0.9973E+01  0.1416E+03
     23.702  0.7906E+01  0.1418E+03
     23.726  0.9279E+01  0.1420E+03
     23.751  0.8149E+01  0.1422E+03
     23.776  0.6733E+01  0.1424E+03
     23.801  0.5638E+01  0.1425E+03
     23.826  0.6735E+01  0.1427E+03
     23.850  0.9214E+01  0.1429E+03
     23.875  0.6600E+01  0.1431E+03
     23.900  0.5760E+01  0.1432E+03
     23.925  0.8844E+01  0.1434E+03
     23.949  0.8312E+01  0.1436E+03
     23.974  0.7441E+01  0.1438E+03
     23.999  0.7309E+01  0.1440E+03
     24.024  0.5967E+01  0.1441E+03
     24.049  0.6357E+01  0.1443E+03
     24.073  0.5232E+01  0.1444E+03
     24.098  0.4090E+01  0.1445E+03
     24.123  0.3338E+01  0.1446E+03
     24.148  0.7674E+01  0.1448E+03
     24.173  0.8795E+01  0.1450E+03
     24.197  0.5391E+01  0.1452E+03
     24.222  0.5163E+01  0.1453E+03
     24.247  0.6831E+01  0.1455E+03
     24.272  0.5289E+01  0.1456E+03
     24.296  0.5605E+01  0.1457E+03
     24.321  0.7236E+01  0.1459E+03
     24.346  0.6315E+01  0.1461E+03
     24.371  0.3953E+01  0.1462E+03
     24.396  0.7137E+01  0.1463E+03
     24.420  0.7054E+01  0.1465E+03
     24.445  0.5249E+01  0.1466E+03
     24.470  0.3711E+01  0.1467E+03
     24.495  0.5800E+01  0.1469E+03
     24.520  0.6109E+01  0.1470E+03
     24.544  0.4762E+01  0.1471E+03
     24.569  0.5317E+01  0.1473E+03
     24.594  0.8372E+01  0.1475E+03
     24.619  0.6546E+01  0.1476E+03
     24.644  0.8063E+01  0.1478E+03
     24.668  0.5129E+01  0.1480E+03
     24.693  0.5800E+01  0.1481E+03
     24.718  0.7098E+01  0.1483E+03
     24.743  0.9274E+01  0.1485E+03
     24.767  0.7004E+01  0.1487E+03
     24.792  0.6914E+01  0.1489E+03
     24.817  0.6647E+01  0.1490E+03
     24.842  0.5629E+01  0.1492E+03
     24.867  0.6522E+01  0.1493E+03
     24.891  0.5649E+01  0.1495E+03
     24.916  0.5802E+01  0.1496E+03
     24.941  0.3910E+01  0.1497E+03
     24.966  0.5548E+01  0.1498E+03
     24.991  0.8809E+01  0.1501E+03
     25.015  0.5982E+01  0.1502E+03
     25.040  0.5204E+01  0.1503E+03
     25.065  0.6579E+01  0.1505E+03
     25.090  0.7008E+01  0.1507E+03
     25.114  0.7808E+01  0.1509E+03
     25.139  0.5917E+01  0.1510E+03
     25.164  0.4370E+01  0.1511E+03
     25.189  0.3837E+01  0.1512E+03
     25.214  0.5927E+01  0.1514E+03
     25.238  0.4916E+01  0.1515E+03
     25.263  0.4110E+01  0.1516E+03
     25.288  0.4347E+01  0.1517E+03
     25.313  0.6136E+01  0.1519E+03
     25.338  0.4680E+01  0.1520E+03
     25.362  0.5788E+01  0.1521E+03
     25.387  0.7047E+01  0.1523E+03
     25.412  0.4667E+01  0.1524E+03
     25.437  0.6703E+01  0.1526E+03
     25.462  0.5748E+01  0.1527E+03
     25.486  0.4458E+01  0.1528E+03
     25.511  0.7202E+01  0.1530E+03
     25.536  0.6589E+01  0.1532E+03
     25.561  0.9012E+01  0.1534E+03
     25.585  0.3586E+01  0.1535E+03
     25.610  0.3674E+01  0.1536E+03
     25.635  0.4214E+01  0.1537E+03
     25.660  0.6010E+01  0.1538E+03
     25.685  0.5315E+01  0.1540E+03
     25.709  0.4505E+01  0.1541E+03
     25.734  0.5730E+01  0.1542E+03
     25.759  0.4436E+01  0.1543E+03
     25.784  0.6291E+01  0.1545E+03
     25.809  0.6115E+01  0.1546E+03
     25.833  0.6090E+01  0.1548E+03
     25.858  0.6201E+01  0.1549E+03
     25.883  0.8251E+01  0.1551E+03
     25.908  0.5188E+01  0.1553E+03
     25.932  0.5914E+01  0.1554E+03
     25.957  0.5970E+01  0.1556E+03
     25.982  0.5848E+01  0.1557E+03
     26.007  0.4381E+01  0.1558E+03
     26.032  0.5282E+01  0.1559E+03
     26.056  0.6534E+01  0.1561E+03
     26.081  0.3865E+01  0.1562E+03
     26.106  0.3720E+01  0.1563E+03
     26.131  0.6368E+01  0.1565E+03
     26.156  0.6145E+01  0.1566E+03
     26.180  0.4993E+01  0.1567E+03
     26.205  0.7113E+01  0.1569E+03
     26.230  0.5697E+01  0.1570E+03
     26.255  0.5989E+01  0.1572E+03
     26.279  0.6256E+01  0.1573E+03
     26.304  0.5966E+01  0.1575E+03
     26.329  0.5099E+01  0.1576E+03
     26.354  0.4307E+01  0.1577E+03
     26.379  0.5920E+01  0.1579E+03
     26.403  0.5077E+01  0.1580E+03
     26.428  0.4058E+01  0.1581E+03
     26.453  0.7204E+01  0.1583E+03
     26.478  0.5695E+01  0.1584E+03
     26.503  0.6706E+01  0.1586E+03
     26.527  0.5768E+01  0.1587E+03
     26.552  0.5361E+01  0.1589E+03
     26.577  0.5986E+01  0.1590E+03
     26.602  0.2501E+01  0.1591E+03
     26.627  0.2855E+01  0.1591E+03
     26.651  0.5847E+01  0.1593E+03
     26.676  0.4858E+01  0.1594E+03
     26.701  0.5047E+01  0.1595E+03
     26.726  0.4227E+01  0.1596E+03
     26.750  0.2760E+01  0.1597E+03
     26.775  0.3128E+01  0.1598E+03
     26.800  0.3842E+01  0.1599E+03
     26.825  0.2799E+01  0.1600E+03
     26.850  0.2836E+01  0.1600E+03
     26.874  0.3367E+01  0.1601E+03
     26.899  0.3952E+01  0.1602E+03
     26.924  0.3313E+01  0.1603E+03
     26.949  0.4842E+01  0.1604E+03
     26.974  0.4495E+01  0.1605E+03
     26.998  0.5503E+01  0.1607E+03
     27.023  0.5349E+01  0.1608E+03
     27.048  0.6974E+01  0.1610E+03
     27.073  0.6480E+01  0.1611E+03
     27.097  0.3681E+01  0.1612E+03
     27.122  0.3419E+01  0.1613E+03
     27.147  0.2986E+01  0.1614E+03
     27.172  0.3568E+01  0.1615E+03
     27.197  0.3465E+01  0.1615E+03
     27.221  0.5799E+01  0.1617E+03
     27.246  0.4382E+01  0.1618E+03
     27.271  0.4992E+01  0.1619E+03
     27.296  0.5123E+01  0.1620E+03
     27.321  0.4101E+01  0.1621E+03
     27.345  0.2782E+01  0.1622E+03
     27.370  0.3484E+01  0.1623E+03
     27.395  0.4933E+01  0.1624E+03
     27.420  0.5380E+01  0.1626E+03
     27.445  0.7077E+01  0.1627E+03
     27.469  0.3888E+01  0.1628E+03
     27.494  0.2799E+01  0.1629E+03
     27.519  0.2928E+01  0.1630E+03
     27.544  0.5292E+01  0.1631E+03
     27.568  0.5571E+01  0.1632E+03
     27.593  0.3781E+01  0.1633E+03
     27.618  0.3970E+01  0.1634E+03
     27.643  0.2649E+01  0.1635E+03
     27.668  0.3019E+01  0.1636E+03
     27.692  0.3990E+01  0.1637E+03
     27.717  0.4198E+01  0.1638E+03
     27.742  0.3964E+01  0.1639E+03
     27.767  0.4676E+01  0.1640E+03
     27.792  0.5528E+01  0.1641E+03
     27.816  0.2106E+01  0.1642E+03
     27.841  0.3406E+01  0.1643E+03
     27.866  0.3861E+01  0.1644E+03
     27.891  0.3942E+01  0.1645E+03
     27.915  0.4271E+01  0.1646E+03
     27.940  0.2856E+01  0.1646E+03
     27.965  0.3505E+01  0.1647E+03
     27.990  0.3262E+01  0.1648E+03
     28.015  0.2925E+01  0.1649E+03
     28.039  0.4829E+01  0.1650E+03
     28.064  0.4585E+01  0.1651E+03
     28.089  0.3947E+01  0.1652E+03
     28.114  0.5381E+01  0.1653E+03
     28.139  0.3525E+01  0.1654E+03
     28.163  0.3995E+01  0.1655E+03
     28.188  0.3119E+01  0.1656E+03
     28.213  0.3495E+01  0.1657E+03
     28.238  0.3387E+01  0.1658E+03
     28.262  0.5180E+01  0.1659E+03
     28.287  0.2015E+01  0.1660E+03
     28.312  0.3171E+01  0.1660E+03
     28.337  0.2918E+01  0.1661E+03
     28.362  0.4911E+01  0.1662E+03
     28.386  0.3971E+01  0.1663E+03
     28.411  0.2017E+01  0.1664E+03
     28.436  0.3037E+01  0.1664E+03
     28.461  0.3241E+01  0.1665E+03
     28.486  0.3505E+01  0.1666E+03
     28.510  0.2333E+01  0.1667E+03
     28.535  0.5284E+01  0.1668E+03
     28.560  0.3694E+01  0.1669E+03
     28.585  0.5801E+01  0.1670E+03
     28.610  0.2791E+01  0.1671E+03
     28.634  0.2044E+01  0.1672E+03
     28.659  0.4052E+01  0.1673E+03
     28.684  0.3571E+01  0.1673E+03
     28.709  0.5047E+01  0.1675E+03
     28.733  0.3806E+01  0.1676E+03
     28.758  0.4068E+01  0.1677E+03
     28.783  0.6721E+01  0.1678E+03
     28.808  0.6691E+01  0.1680E+03
     28.833  0.8595E+01  0.1682E+03
     28.857  0.6442E+01  0.1684E+03
     28.882  0.4065E+01  0.1685E+03
     28.907  0.3389E+01  0.1686E+03
     28.932  0.3496E+01  0.1686E+03
     28.957  0.3612E+01  0.1687E+03
     28.981  0.3787E+01  0.1688E+03
     29.006  0.5296E+01  0.1690E+03
     29.031  0.2556E+01  0.1690E+03
     29.056  0.4627E+01  0.1691E+03
     29.080  0.4897E+01  0.1693E+03
     29.105  0.6677E+01  0.1694E+03
     29.130  0.5800E+01  0.1696E+03
     29.155  0.4992E+01  0.1697E+03
     29.180  0.3235E+01  0.1698E+03
     29.204  0.4912E+01  0.1699E+03
     29.229  0.8308E+01  0.1701E+03
     29.254  0.5569E+01  0.1702E+03
     29.279  0.5544E+01  0.1704E+03
     29.304  0.6358E+01  0.1705E+03
     29.328  0.6343E+01  0.1707E+03
     29.353  0.6223E+01  0.1708E+03
     29.378  0.6580E+01  0.1710E+03
     29.403  0.6188E+01  0.1712E+03
     29.428  0.4580E+01  0.1713E+03
     29.452  0.4764E+01  0.1714E+03
     29.477  0.9242E+01  0.1716E+03
     29.502  0.6103E+01  0.1718E+03
     29.527  0.8080E+01  0.1720E+03
     29.551  0.5421E+01  0.1721E+03
     29.576  0.5587E+01  0.1722E+03
     29.601  0.5359E+01  0.1724E+03
     29.626  0.3442E+01  0.1725E+03
     29.651  0.3162E+01  0.1725E+03
     29.675  0.5695E+01  0.1727E+03
     29.700  0.5802E+01  0.1728E+03
     29.725  0.5512E+01  0.1730E+03
     29.750  0.7596E+01  0.1732E+03
     29.775  0.7268E+01  0.1733E+03
     29.799  0.5984E+01  0.1735E+03
     29.824  0.4466E+01  0.1736E+03
     29.849  0.4483E+01  0.1737E+03
     29.874  0.5773E+01  0.1738E+03
     29.898  0.8899E+01  0.1741E+03
     29.923  0.6747E+01  0.1742E+03
     29.948  0.5574E+01  0.1744E+03
     29.973  0.4488E+01  0.1745E+03
     29.998  0.5876E+01  0.1746E+03
     30.022  0.5689E+01  0.1748E+03
     30.047  0.8713E+01  0.1750E+03
     30.072  0.5640E+01  0.1751E+03
     30.097  0.4810E+01  0.1752E+03
     30.122  0.8013E+01  0.1754E+03
     30.146  0.6283E+01  0.1756E+03
     30.171  0.6937E+01  0.1758E+03
     30.196  0.7186E+01  0.1760E+03
     30.221  0.5706E+01  0.1761E+03
     30.245  0.5927E+01  0.1762E+03
     30.270  0.6332E+01  0.1764E+03
     30.295  0.6411E+01  0.1766E+03
     30.320  0.5423E+01  0.1767E+03
     30.345  0.4168E+01  0.1768E+03
     30.369  0.5584E+01  0.1769E+03
     30.394  0.6305E+01  0.1771E+03
     30.419  0.7448E+01  0.1773E+03
     30.444  0.5719E+01  0.1774E+03
     30.469  0.6420E+01  0.1776E+03
     30.493  0.5629E+01  0.1777E+03
     30.518  0.8362E+01  0.1779E+03
     30.543  0.3578E+01  0.1780E+03
     30.568  0.4569E+01  0.1781E+03
     30.593  0.6718E+01  0.1783E+03
     30.617  0.4659E+01  0.1784E+03
     30.642  0.6409E+01  0.1786E+03
     30.667  0.7497E+01  0.1787E+03
     30.692  0.7233E+01  0.1789E+03
     30.716  0.8056E+01  0.1791E+03
     30.741  0.8459E+01  0.1793E+03
     30.766  0.5641E+01  0.1795E+03
     30.791  0.4083E+01  0.1796E+03
     30.816  0.5498E+01  0.1797E+03
     30.840  0.7698E+01  0.1799E+03
     30.865  0.4755E+01  0.1800E+03
     30.890  0.5476E+01  0.1802E+03
     30.915  0.5574E+01  0.1803E+03
     30.940  0.5019E+01  0.1804E+03
     30.964  0.5245E+01  0.1806E+03
     30.989  0.4724E+01  0.1807E+03
     31.014  0.6460E+01  0.1808E+03
     31.039  0.4877E+01  0.1809E+03
     31.063  0.4590E+01  0.1811E+03
     31.088  0.4396E+01  0.1812E+03
     31.113  0.4218E+01  0.1813E+03
     31.138  0.4134E+01  0.1814E+03
     31.163  0.5081E+01  0.1815E+03
     31.187  0.6250E+01  0.1817E+03
     31.212  0.7123E+01  0.1818E+03
     31.237  0.5572E+01  0.1820E+03
     31.262  0.5456E+01  0.1821E+03
     31.287  0.4172E+01  0.1822E+03
     31.311  0.3213E+01  0.1823E+03
     31.336  0.7637E+01  0.1825E+03
     31.361  0.5284E+01  0.1826E+03
     31.386  0.4869E+01  0.1827E+03
     31.411  0.5915E+01  0.1829E+03
     31.435  0.6862E+01  0.1831E+03
     31.460  0.5851E+01  0.1832E+03
     31.485  0.4380E+01  0.1833E+03
     31.510  0.4972E+01  0.1834E+03
     31.534  0.4959E+01  0.1836E+03
     31.559  0.5517E+01  0.1837E+03
     31.584  0.4966E+01  0.1838E+03
     31.609  0.4067E+01  0.1839E+03
     31.634  0.3302E+01  0.1840E+03
     31.658  0.5427E+01  0.1841E+03
     31.683  0.8583E+01  0.1843E+03
     31.708  0.5902E+01  0.1845E+03
     31.733  0.5009E+01  0.1846E+03
     31.758  0.6261E+01  0.1848E+03
     31.782  0.4713E+01  0.1849E+03
     31.807  0.7177E+01  0.1851E+03
     31.832  0.4780E+01  0.1852E+03
     31.857  0.5329E+01  0.1853E+03
     31.881  0.6078E+01  0.1855E+03
     31.906  0.5444E+01  0.1856E+03
     31.931  0.9204E+01  0.1858E+03
     31.956  0.7204E+01  0.1860E+03
     31.981  0.6156E+01  0.1862E+03
     32.005  0.7780E+01  0.1863E+03
     32.030  0.8306E+01  0.1866E+03
     32.055  0.4875E+01  0.1867E+03
     32.080  0.6223E+01  0.1868E+03
     32.105  0.4564E+01  0.1869E+03
     32.129  0.5331E+01  0.1871E+03
     32.154  0.7644E+01  0.1873E+03
     32.179  0.4612E+01  0.1874E+03
     32.204  0.6436E+01  0.1875E+03
     32.228  0.7524E+01  0.1877E+03
     32.253  0.7227E+01  0.1879E+03
     32.278  0.7416E+01  0.1881E+03
     32.303  0.5083E+01  0.1882E+03
     32.328  0.7084E+01  0.1884E+03
     32.352  0.6567E+01  0.1886E+03
     32.377  0.7149E+01  0.1887E+03
     32.402  0.5426E+01  0.1889E+03
     32.427  0.7490E+01  0.1890E+03
     32.452  0.7370E+01  0.1892E+03
     32.476  0.6238E+01  0.1894E+03
     32.501  0.9278E+01  0.1896E+03
     32.526  0.8549E+01  0.1898E+03
     32.551  0.5882E+01  0.1900E+03
     32.576  0.6138E+01  0.1901E+03
     32.600  0.5152E+01  0.1903E+03
     32.625  0.3905E+01  0.1904E+03
     32.650  0.5354E+01  0.1905E+03
     32.675  0.7131E+01  0.1907E+03
     32.699  0.6749E+01  0.1908E+03
     32.724  0.7573E+01  0.1910E+03
     32.749  0.6331E+01  0.1912E+03
     32.774  0.7060E+01  0.1913E+03
     32.799  0.6061E+01  0.1915E+03
     32.823  0.6255E+01  0.1917E+03
     32.848  0.6658E+01  0.1918E+03
     32.873  0.8106E+01  0.1920E+03
     32.898  0.6868E+01  0.1922E+03
     32.923  0.7416E+01  0.1924E+03
     32.947  0.6908E+01  0.1925E+03
     32.972  0.5613E+01  0.1927E+03
     32.997  0.5837E+01  0.1928E+03
     33.022  0.9141E+01  0.1931E+03
     33.046  0.6496E+01  0.1932E+03
     33.071  0.7620E+01  0.1934E+03
     33.096  0.8332E+01  0.1936E+03
     33.121  0.7002E+01  0.1938E+03
     33.146  0.7625E+01  0.1940E+03
     33.170  0.5630E+01  0.1941E+03
     33.195  0.7777E+01  0.1943E+03
     33.220  0.9626E+01  0.1945E+03
     33.245  0.6907E+01  0.1947E+03
     33.270  0.6783E+01  0.1949E+03
     33.294  0.5697E+01  0.1950E+03
     33.319  0.7871E+01  0.1952E+03
     33.344  0.8964E+01  0.1954E+03
     33.369  0.5309E+01  0.1956E+03
     33.393  0.8773E+01  0.1958E+03
     33.418  0.7195E+01  0.1960E+03
     33.443  0.1066E+02  0.1962E+03
     33.468  0.4780E+01  0.1964E+03
     33.493  0.8424E+01  0.1966E+03
     33.517  0.6709E+01  0.1967E+03
     33.542  0.7288E+01  0.1969E+03
     33.567  0.7513E+01  0.1971E+03
     33.592  0.7160E+01  0.1973E+03
     33.617  0.6796E+01  0.1974E+03
     33.641  0.7516E+01  0.1976E+03
     33.666  0.1057E+02  0.1979E+03
     33.691  0.8334E+01  0.1981E+03
     33.716  0.1002E+02  0.1983E+03
     33.741  0.6509E+01  0.1985E+03
     33.765  0.6864E+01  0.1987E+03
     33.790  0.8469E+01  0.1989E+03
     33.815  0.7135E+01  0.1991E+03
     33.840  0.8175E+01  0.1993E+03
     33.864  0.5624E+01  0.1994E+03
     33.889  0.7002E+01  0.1996E+03
     33.914  0.8620E+01  0.1998E+03
     33.939  0.6759E+01  0.2000E+03
     33.964  0.5479E+01  0.2001E+03
     33.988  0.6949E+01  0.2003E+03
     34.013  0.8889E+01  0.2005E+03
     34.038  0.4429E+01  0.2006E+03
     34.063  0.2559E+01  0.2007E+03
     34.088  0.5616E+01  0.2008E+03
     34.112  0.8468E+01  0.2010E+03
     34.137  0.1063E+02  0.2013E+03
     34.162  0.7976E+01  0.2015E+03
     34.187  0.5381E+01  0.2016E+03
     34.211  0.5584E+01  0.2017E+03
     34.236  0.7016E+01  0.2019E+03
     34.261  0.6015E+01  0.2021E+03
     34.286  0.5325E+01  0.2022E+03
     34.311  0.6000E+01  0.2023E+03
     34.335  0.5276E+01  0.2025E+03
     34.360  0.7878E+01  0.2027E+03
     34.385  0.8065E+01  0.2029E+03
     34.410  0.6269E+01  0.2030E+03
     34.435  0.7117E+01  0.2032E+03
     34.459  0.7150E+01  0.2034E+03
     34.484  0.6535E+01  0.2035E+03
     34.509  0.8532E+01  0.2038E+03
     34.534  0.6028E+01  0.2039E+03
     34.559  0.5830E+01  0.2040E+03
     34.583  0.7362E+01  0.2042E+03
     34.608  0.5472E+01  0.2044E+03
     34.633  0.6223E+01  0.2045E+03
     34.658  0.6031E+01  0.2047E+03
     34.682  0.7734E+01  0.2049E+03
     34.707  0.5096E+01  0.2050E+03
     34.732  0.6617E+01  0.2052E+03
     34.757  0.6126E+01  0.2053E+03
     34.782  0.6913E+01  0.2055E+03
     34.806  0.2848E+01  0.2055E+03
     34.831  0.6160E+01  0.2057E+03
     34.856  0.4348E+01  0.2058E+03
     34.881  0.4147E+01  0.2059E+03
     34.906  0.5450E+01  0.2060E+03
     34.930  0.5968E+01  0.2062E+03
     34.955  0.5672E+01  0.2063E+03
     34.980  0.7780E+01  0.2065E+03
     35.005  0.8908E+01  0.2067E+03
     35.029  0.5942E+01  0.2069E+03
     35.054  0.6897E+01  0.2071E+03
     35.079  0.6755E+01  0.2072E+03
     35.104  0.6271E+01  0.2074E+03
     35.129  0.3377E+01  0.2075E+03
     35.153  0.9308E+01  0.2077E+03
     35.178  0.6682E+01  0.2079E+03
     35.203  0.5972E+01  0.2080E+03
     35.228  0.5093E+01  0.2081E+03
     35.253  0.4727E+01  0.2083E+03
     35.277  0.1018E+02  0.2085E+03
     35.302  0.6300E+01  0.2087E+03
     35.327  0.3721E+01  0.2088E+03
     35.352  0.4865E+01  0.2089E+03
     35.376  0.4593E+01  0.2090E+03
     35.401  0.3805E+01  0.2091E+03
     35.426  0.4488E+01  0.2092E+03
     35.451  0.5890E+01  0.2093E+03
     35.476  0.4353E+01  0.2095E+03
     35.500  0.6235E+01  0.2096E+03
     35.525  0.6306E+01  0.2098E+03
     35.550  0.5164E+01  0.2099E+03
     35.575  0.5505E+01  0.2100E+03
     35.600  0.4638E+01  0.2101E+03
     35.624  0.5047E+01  0.2103E+03
     35.649  0.5999E+01  0.2104E+03
     35.674  0.4517E+01  0.2105E+03
     35.699  0.5410E+01  0.2107E+03
     35.724  0.4861E+01  0.2108E+03
     35.748  0.3450E+01  0.2109E+03
     35.773  0.6727E+01  0.2110E+03
     35.798  0.4823E+01  0.2112E+03
     35.823  0.3180E+01  0.2112E+03
     35.847  0.5278E+01  0.2114E+03
     35.872  0.8391E+01  0.2116E+03
     35.897  0.5538E+01  0.2117E+03
     35.922  0.3891E+01  0.2118E+03
     35.947  0.6230E+01  0.2120E+03
     35.971  0.8215E+01  0.2122E+03
     35.996  0.5267E+01  0.2123E+03
     36.021  0.2931E+01  0.2124E+03
     36.046  0.3385E+01  0.2125E+03
     36.071  0.4656E+01  0.2126E+03
     36.095  0.3771E+01  0.2127E+03
     36.120  0.7969E+01  0.2129E+03
     36.145  0.5960E+01  0.2130E+03
     36.170  0.5484E+01  0.2131E+03
     36.194  0.6621E+01  0.2133E+03
     36.219  0.6835E+01  0.2135E+03
     36.244  0.6323E+01  0.2136E+03
     36.269  0.4290E+01  0.2137E+03
     36.294  0.2993E+01  0.2138E+03
     36.318  0.6377E+01  0.2140E+03
     36.343  0.5708E+01  0.2141E+03
     36.368  0.2930E+01  0.2142E+03
     36.393  0.7229E+01  0.2144E+03
     36.418  0.5542E+01  0.2145E+03
     36.442  0.5641E+01  0.2146E+03
     36.467  0.4677E+01  0.2148E+03
     36.492  0.3770E+01  0.2149E+03
     36.517  0.5613E+01  0.2150E+03
     36.542  0.8833E+01  0.2152E+03
     36.566  0.7787E+01  0.2154E+03
     36.591  0.5272E+01  0.2155E+03
     36.616  0.7563E+01  0.2157E+03
     36.641  0.6175E+01  0.2159E+03
     36.665  0.6702E+01  0.2160E+03
     36.690  0.5706E+01  0.2162E+03
     36.715  0.4383E+01  0.2163E+03
     36.740  0.6266E+01  0.2164E+03
     36.765  0.8659E+01  0.2167E+03
     36.789  0.6620E+01  0.2168E+03
     36.814  0.4889E+01  0.2169E+03
     36.839  0.5719E+01  0.2171E+03
     36.864  0.7354E+01  0.2173E+03
     36.889  0.5750E+01  0.2174E+03
     36.913  0.5710E+01  0.2176E+03
     36.938  0.7757E+01  0.2177E+03
     36.963  0.6253E+01  0.2179E+03
     36.988  0.6374E+01  0.2181E+03
     37.012  0.6028E+01  0.2182E+03
     37.037  0.7299E+01  0.2184E+03
     37.062  0.7588E+01  0.2186E+03
     37.087  0.8390E+01  0.2188E+03
     37.112  0.8259E+01  0.2190E+03
     37.136  0.9444E+01  0.2192E+03
     37.161  0.6142E+01  0.2194E+03
     37.186  0.4556E+01  0.2195E+03
     37.211  0.6701E+01  0.2197E+03
     37.236  0.6647E+01  0.2198E+03
     37.260  0.5767E+01  0.2200E+03
     37.285  0.6328E+01  0.2201E+03
     37.310  0.6010E+01  0.2203E+03
     37.335  0.7202E+01  0.2204E+03
     37.359  0.4852E+01  0.2206E+03
     37.384  0.6105E+01  0.2207E+03
     37.409  0.6732E+01  0.2209E+03
     37.434  0.5250E+01  0.2210E+03
     37.459  0.4944E+01  0.2211E+03
     37.483  0.4722E+01  0.2213E+03
     37.508  0.7103E+01  0.2214E+03
     37.533  0.6667E+01  0.2216E+03
     37.558  0.6068E+01  0.2217E+03
     37.583  0.5800E+01  0.2219E+03
     37.607  0.6446E+01  0.2221E+03
     37.632  0.5744E+01  0.2222E+03
     37.657  0.5384E+01  0.2223E+03
     37.682  0.7231E+01  0.2225E+03
     37.707  0.8175E+01  0.2227E+03
     37.731  0.6666E+01  0.2229E+03
     37.756  0.6038E+01  0.2230E+03
     37.781  0.5134E+01  0.2232E+03
     37.806  0.7796E+01  0.2233E+03
     37.830  0.7552E+01  0.2235E+03
     37.855  0.8093E+01  0.2237E+03
     37.880  0.1032E+02  0.2240E+03
     37.905  0.8143E+01  0.2242E+03
     37.930  0.4564E+01  0.2243E+03
     37.954  0.4537E+01  0.2244E+03
     37.979  0.7667E+01  0.2246E+03
     38.004  0.6388E+01  0.2248E+03
     38.029  0.6000E+01  0.2249E+03
     38.054  0.4511E+01  0.2250E+03
     38.078  0.6868E+01  0.2252E+03
     38.103  0.5005E+01  0.2253E+03
     38.128  0.8736E+01  0.2255E+03
     38.153  0.7536E+01  0.2257E+03
     38.177  0.7429E+01  0.2259E+03
     38.202  0.5207E+01  0.2260E+03
     38.227  0.7485E+01  0.2262E+03
     38.252  0.7751E+01  0.2264E+03
     38.277  0.6491E+01  0.2266E+03
     38.301  0.5379E+01  0.2267E+03
     38.326  0.6908E+01  0.2269E+03
     38.351  0.7223E+01  0.2271E+03
     38.376  0.9641E+01  0.2273E+03
     38.401  0.8647E+01  0.2275E+03
     38.425  0.8117E+01  0.2277E+03
     38.450  0.6823E+01  0.2279E+03
     38.475  0.7888E+01  0.2281E+03
     38.500  0.8130E+01  0.2283E+03
     38.525  0.1074E+02  0.2285E+03
     38.549  0.8342E+01  0.2288E+03
     38.574  0.7898E+01  0.2289E+03
     38.599  0.9754E+01  0.2292E+03
     38.624  0.6439E+01  0.2293E+03
     38.648  0.4737E+01  0.2295E+03
     38.673  0.9535E+01  0.2297E+03
     38.698  0.8124E+01  0.2299E+03
     38.723  0.8208E+01  0.2301E+03
     38.748  0.9031E+01  0.2303E+03
     38.772  0.6252E+01  0.2305E+03
     38.797  0.7273E+01  0.2307E+03
     38.822  0.8441E+01  0.2309E+03
     38.847  0.6647E+01  0.2310E+03
     38.872  0.5051E+01  0.2312E+03
     38.896  0.8172E+01  0.2314E+03
     38.921  0.6281E+01  0.2315E+03
     38.946  0.7321E+01  0.2317E+03
     38.971  0.5099E+01  0.2318E+03
     38.995  0.8140E+01  0.2320E+03
     39.020  0.7775E+01  0.2322E+03
     39.045  0.7623E+01  0.2324E+03
     39.070  0.7952E+01  0.2326E+03
     39.095  0.1056E+02  0.2329E+03
     39.119  0.6494E+01  0.2330E+03
     39.144  0.8588E+01  0.2332E+03
     39.169  0.7086E+01  0.2334E+03
     39.194  0.5924E+01  0.2336E+03
     39.219  0.5697E+01  0.2337E+03
     39.243  0.5261E+01  0.2338E+03
     39.268  0.6099E+01  0.2340E+03
     39.293  0.6110E+01  0.2341E+03
     39.318  0.6705E+01  0.2343E+03
     39.342  0.6948E+01  0.2345E+03
     39.367  0.7031E+01  0.2347E+03
     39.392  0.7376E+01  0.2348E+03
     39.417  0.6570E+01  0.2350E+03
     39.442  0.7481E+01  0.2352E+03
     39.466  0.6276E+01  0.2353E+03
     39.491  0.6127E+01  0.2355E+03
     39.516  0.5138E+01  0.2356E+03
     39.541  0.5160E+01  0.2358E+03
     39.566  0.8331E+01  0.2360E+03
     39.590  0.6935E+01  0.2361E+03
     39.615  0.8669E+01  0.2363E+03
     39.640  0.8418E+01  0.2366E+03
     39.665  0.4826E+01  0.2367E+03
     39.690  0.4295E+01  0.2368E+03
     39.714  0.6812E+01  0.2369E+03
     39.739  0.7391E+01  0.2371E+03
     39.764  0.7165E+01  0.2373E+03
     39.789  0.7558E+01  0.2375E+03
     39.813  0.7807E+01  0.2377E+03
     39.838  0.8574E+01  0.2379E+03
     39.863  0.7289E+01  0.2381E+03
     39.888  0.6476E+01  0.2382E+03
     39.913  0.5826E+01  0.2384E+03
     39.937  0.2442E+01  0.2384E+03
     39.962  0.4653E+01  0.2386E+03
     39.987  0.6371E+01  0.2387E+03
     40.012  0.6015E+01  0.2389E+03
     40.037  0.7189E+01  0.2390E+03
     40.061  0.7457E+01  0.2392E+03
     40.086  0.8838E+01  0.2395E+03
     40.111  0.6945E+01  0.2396E+03
     40.136  0.7097E+01  0.2398E+03
     40.160  0.6661E+01  0.2400E+03
     40.185  0.8134E+01  0.2402E+03
     40.210  0.6578E+01  0.2403E+03
     40.235  0.7567E+01  0.2405E+03
     40.260  0.6948E+01  0.2407E+03
     40.284  0.8627E+01  0.2409E+03
     40.309  0.8334E+01  0.2411E+03
     40.334  0.9013E+01  0.2413E+03
     40.359  0.8176E+01  0.2415E+03
     40.384  0.8045E+01  0.2417E+03
     40.408  0.5663E+01  0.2419E+03
     40.433  0.4882E+01  0.2420E+03
     40.458  0.7192E+01  0.2422E+03
     40.483  0.7482E+01  0.2424E+03
     40.508  0.6102E+01  0.2425E+03
     40.532  0.4577E+01  0.2426E+03
     40.557  0.6400E+01  0.2428E+03
     40.582  0.1085E+02  0.2431E+03
     40.607  0.6705E+01  0.2432E+03
     40.631  0.7713E+01  0.2434E+03
     40.656  0.7094E+01  0.2436E+03
     40.681  0.8564E+01  0.2438E+03
     40.706  0.1104E+02  0.2441E+03
     40.731  0.7865E+01  0.2443E+03
     40.755  0.8661E+01  0.2445E+03
     40.780  0.7701E+01  0.2447E+03
     40.805  0.9710E+01  0.2449E+03
     40.830  0.7198E+01  0.2451E+03
     40.855  0.3535E+01  0.2452E+03
     40.879  0.7395E+01  0.2454E+03
     40.904  0.7343E+01  0.2455E+03
     40.929  0.7012E+01  0.2457E+03
     40.954  0.7130E+01  0.2459E+03
     40.978  0.4996E+01  0.2460E+03
     41.003  0.9790E+01  0.2463E+03
     41.028  0.8814E+01  0.2465E+03
     41.053  0.6959E+01  0.2467E+03
     41.078  0.7606E+01  0.2468E+03
     41.102  0.6473E+01  0.2470E+03
     41.127  0.8110E+01  0.2472E+03
     41.152  0.7074E+01  0.2474E+03
     41.177  0.7915E+01  0.2476E+03
     41.202  0.5603E+01  0.2477E+03
     41.226  0.5942E+01  0.2479E+03
     41.251  0.9432E+01  0.2481E+03
     41.276  0.8434E+01  0.2483E+03
     41.301  0.9312E+01  0.2485E+03
     41.325  0.7589E+01  0.2487E+03
     41.350  0.7536E+01  0.2489E+03
     41.375  0.5525E+01  0.2490E+03
     41.400  0.6365E+01  0.2492E+03
     41.425  0.6340E+01  0.2494E+03
     41.449  0.7829E+01  0.2496E+03
     41.474  0.8545E+01  0.2498E+03
     41.499  0.1049E+02  0.2500E+03
     41.524  0.6801E+01  0.2502E+03
     41.549  0.6086E+01  0.2503E+03
     41.573  0.7237E+01  0.2505E+03
     41.598  0.8544E+01  0.2507E+03
     41.623  0.9517E+01  0.2510E+03
     41.648  0.7291E+01  0.2512E+03
     41.673  0.5183E+01  0.2513E+03
     41.697  0.4724E+01  0.2514E+03
     41.722  0.5125E+01  0.2515E+03
     41.747  0.7122E+01  0.2517E+03
     41.772  0.7308E+01  0.2519E+03
     41.796  0.5593E+01  0.2520E+03
     41.821  0.5951E+01  0.2522E+03
     41.846  0.4525E+01  0.2523E+03
     41.871  0.6998E+01  0.2525E+03
     41.896  0.5266E+01  0.2526E+03
     41.920  0.6534E+01  0.2527E+03
     41.945  0.7436E+01  0.2529E+03
     41.970  0.4712E+01  0.2530E+03
     41.995  0.5419E+01  0.2532E+03
     42.020  0.8109E+01  0.2534E+03
     42.044  0.8730E+01  0.2536E+03
     42.069  0.7813E+01  0.2538E+03
     42.094  0.6194E+01  0.2539E+03
     42.119  0.7421E+01  0.2541E+03
     42.143  0.8823E+01  0.2544E+03
     42.168  0.7864E+01  0.2545E+03
     42.193  0.6417E+01  0.2547E+03
     42.218  0.6075E+01  0.2549E+03
     42.243  0.5860E+01  0.2550E+03
     42.267  0.7703E+01  0.2552E+03
     42.292  0.7764E+01  0.2554E+03
     42.317  0.4757E+01  0.2555E+03
     42.342  0.3879E+01  0.2556E+03
     42.367  0.6701E+01  0.2558E+03
     42.391  0.9122E+01  0.2560E+03
     42.416  0.8495E+01  0.2562E+03
     42.441  0.5973E+01  0.2563E+03
     42.466  0.6861E+01  0.2565E+03
     42.490  0.6999E+01  0.2567E+03
     42.515  0.5738E+01  0.2568E+03
     42.540  0.6286E+01  0.2570E+03
     42.565  0.4612E+01  0.2571E+03
     42.590  0.8459E+01  0.2573E+03
     42.614  0.1018E+02  0.2576E+03
     42.639  0.5087E+01  0.2577E+03
     42.664  0.4512E+01  0.2578E+03
     42.689  0.5795E+01  0.2579E+03
     42.714  0.5432E+01  0.2581E+03
     42.738  0.6177E+01  0.2582E+03
     42.763  0.5579E+01  0.2584E+03
     42.788  0.8966E+01  0.2586E+03
     42.813  0.9280E+01  0.2588E+03
     42.838  0.9787E+01  0.2591E+03
     42.862  0.8530E+01  0.2593E+03
     42.887  0.6072E+01  0.2594E+03
     42.912  0.7260E+01  0.2596E+03
     42.937  0.7723E+01  0.2598E+03
     42.961  0.5364E+01  0.2599E+03
     42.986  0.6764E+01  0.2601E+03
     43.011  0.7731E+01  0.2603E+03
     43.036  0.9094E+01  0.2605E+03
     43.061  0.7046E+01  0.2607E+03
     43.085  0.6089E+01  0.2608E+03
     43.110  0.7770E+01  0.2610E+03
     43.135  0.8132E+01  0.2612E+03
     43.160  0.8723E+01  0.2615E+03
     43.185  0.5339E+01  0.2616E+03
     43.209  0.4060E+01  0.2617E+03
     43.234  0.7152E+01  0.2619E+03
     43.259  0.7739E+01  0.2621E+03
     43.284  0.7549E+01  0.2622E+03
     43.308  0.7216E+01  0.2624E+03
     43.333  0.5412E+01  0.2626E+03
     43.358  0.8533E+01  0.2628E+03
     43.383  0.4605E+01  0.2629E+03
     43.408  0.5442E+01  0.2630E+03
     43.432  0.7702E+01  0.2632E+03
     43.457  0.8818E+01  0.2634E+03
     43.482  0.6896E+01  0.2636E+03
     43.507  0.5943E+01  0.2637E+03
     43.532  0.9765E+01  0.2640E+03
     43.556  0.7933E+01  0.2642E+03
     43.581  0.7167E+01  0.2644E+03
     43.606  0.8200E+01  0.2646E+03
     43.631  0.5680E+01  0.2647E+03
     43.656  0.6299E+01  0.2649E+03
     43.680  0.8556E+01  0.2651E+03
     43.705  0.7287E+01  0.2653E+03
     43.730  0.6658E+01  0.2654E+03
     43.755  0.6095E+01  0.2656E+03
     43.779  0.6277E+01  0.2657E+03
     43.804  0.6819E+01  0.2659E+03
     43.829  0.4571E+01  0.2660E+03
     43.854  0.7676E+01  0.2662E+03
     43.879  0.6563E+01  0.2664E+03
     43.903  0.8725E+01  0.2666E+03
     43.928  0.6748E+01  0.2667E+03
     43.953  0.5341E+01  0.2669E+03
     43.978  0.5470E+01  0.2670E+03
     44.003  0.5727E+01  0.2672E+03
     44.027  0.3808E+01  0.2673E+03
     44.052  0.8166E+01  0.2675E+03
     44.077  0.7576E+01  0.2676E+03
     44.102  0.7571E+01  0.2678E+03
     44.126  0.9881E+01  0.2681E+03
     44.151  0.8323E+01  0.2683E+03
     44.176  0.7454E+01  0.2685E+03
     44.201  0.7684E+01  0.2687E+03
     44.226  0.9316E+01  0.2689E+03
     44.250  0.6983E+01  0.2691E+03
     44.275  0.8177E+01  0.2693E+03
     44.300  0.4749E+01  0.2694E+03
     44.325  0.6289E+01  0.2695E+03
     44.350  0.4803E+01  0.2697E+03
     44.374  0.6792E+01  0.2698E+03
     44.399  0.7694E+01  0.2700E+03
     44.424  0.6206E+01  0.2702E+03
     44.449  0.7513E+01  0.2704E+03
     44.473  0.4240E+01  0.2705E+03
     44.498  0.6976E+01  0.2706E+03
     44.523  0.7178E+01  0.2708E+03
     44.548  0.5682E+01  0.2710E+03
     44.573  0.8856E+01  0.2712E+03
     44.597  0.6752E+01  0.2713E+03
     44.622  0.6203E+01  0.2715E+03
     44.647  0.6516E+01  0.2717E+03
     44.672  0.6292E+01  0.2718E+03
     44.697  0.6333E+01  0.2720E+03
     44.721  0.6543E+01  0.2721E+03
     44.746  0.8222E+01  0.2723E+03
     44.771  0.7876E+01  0.2725E+03
     44.796  0.7606E+01  0.2727E+03
     44.821  0.5479E+01  0.2729E+03
     44.845  0.7092E+01  0.2730E+03
     44.870  0.6270E+01  0.2732E+03
     44.895  0.5272E+01  0.2733E+03
     44.920  0.7173E+01  0.2735E+03
     44.944  0.1017E+02  0.2737E+03
     44.969  0.6967E+01  0.2739E+03
     44.994  0.5804E+01  0.2741E+03
     45.019  0.5680E+01  0.2742E+03
     45.044  0.4910E+01  0.2743E+03
     45.068  0.4794E+01  0.2744E+03
     45.093  0.4054E+01  0.2745E+03
     45.118  0.8231E+01  0.2747E+03
     45.143  0.6364E+01  0.2749E+03
     45.168  0.9358E+01  0.2751E+03
     45.192  0.6741E+01  0.2753E+03
     45.217  0.5820E+01  0.2754E+03
     45.242  0.5109E+01  0.2756E+03
     45.267  0.5584E+01  0.2757E+03
     45.291  0.6510E+01  0.2759E+03
     45.316  0.9234E+01  0.2761E+03
     45.341  0.9135E+01  0.2763E+03
     45.366  0.6727E+01  0.2765E+03
     45.391  0.4946E+01  0.2766E+03
     45.415  0.5457E+01  0.2768E+03
     45.440  0.5243E+01  0.2769E+03
     45.465  0.8743E+01  0.2771E+03
     45.490  0.5130E+01  0.2772E+03
     45.515  0.7955E+01  0.2774E+03
     45.539  0.8799E+01  0.2776E+03
     45.564  0.7990E+01  0.2778E+03
     45.589  0.6032E+01  0.2780E+03
     45.614  0.7402E+01  0.2782E+03
     45.639  0.6198E+01  0.2783E+03
     45.663  0.9481E+01  0.2786E+03
     45.688  0.7409E+01  0.2787E+03
     45.713  0.5372E+01  0.2789E+03
     45.738  0.6757E+01  0.2790E+03
     45.762  0.6729E+01  0.2792E+03
     45.787  0.8363E+01  0.2794E+03
     45.812  0.8344E+01  0.2796E+03
     45.837  0.6622E+01  0.2798E+03
     45.862  0.6420E+01  0.2800E+03
     45.886  0.6628E+01  0.2801E+03
     45.911  0.5407E+01  0.2802E+03
     45.936  0.4995E+01  0.2804E+03
     45.961  0.3908E+01  0.2805E+03
     45.986  0.7786E+01  0.2807E+03
     46.010  0.9197E+01  0.2809E+03
     46.035  0.7228E+01  0.2811E+03
     46.060  0.6234E+01  0.2812E+03
     46.085  0.5612E+01  0.2814E+03
     46.109  0.5829E+01  0.2815E+03
     46.134  0.5138E+01  0.2816E+03
     46.159  0.8669E+01  0.2818E+03
     46.184  0.6707E+01  0.2820E+03
     46.209  0.5678E+01  0.2822E+03
     46.233  0.6889E+01  0.2823E+03
     46.258  0.7876E+01  0.2825E+03
     46.283  0.7261E+01  0.2827E+03
     46.308  0.1002E+02  0.2830E+03
     46.333  0.7447E+01  0.2831E+03
     46.357  0.1025E+02  0.2834E+03
     46.382  0.4350E+01  0.2835E+03
     46.407  0.6421E+01  0.2837E+03
     46.432  0.6134E+01  0.2838E+03
     46.456  0.4666E+01  0.2839E+03
     46.481  0.5033E+01  0.2840E+03
     46.506  0.7773E+01  0.2842E+03
     46.531  0.8494E+01  0.2845E+03
     46.556  0.9068E+01  0.2847E+03
     46.580  0.5663E+01  0.2848E+03
     46.605  0.6736E+01  0.2850E+03
     46.630  0.5099E+01  0.2851E+03
     46.655  0.6758E+01  0.2853E+03
     46.680  0.6802E+01  0.2854E+03
     46.704  0.8130E+01  0.2856E+03
     46.729  0.6255E+01  0.2858E+03
     46.754  0.8068E+01  0.2860E+03
     46.779  0.5637E+01  0.2861E+03
     46.804  0.8174E+01  0.2863E+03
     46.828  0.7629E+01  0.2865E+03
     46.853  0.8016E+01  0.2867E+03
     46.878  0.6858E+01  0.2869E+03
     46.903  0.8217E+01  0.2871E+03
     46.927  0.9280E+01  0.2873E+03
     46.952  0.7503E+01  0.2875E+03
     46.977  0.5732E+01  0.2877E+03
     47.002  0.6916E+01  0.2878E+03
     47.027  0.7005E+01  0.2880E+03
     47.051  0.9649E+01  0.2883E+03
     47.076  0.6614E+01  0.2884E+03
     47.101  0.4572E+01  0.2885E+03
     47.126  0.5672E+01  0.2887E+03
     47.151  0.5057E+01  0.2888E+03
     47.175  0.8419E+01  0.2890E+03
     47.200  0.8547E+01  0.2892E+03
     47.225  0.6055E+01  0.2894E+03
     47.250  0.7316E+01  0.2895E+03
     47.274  0.4723E+01  0.2897E+03
     47.299  0.8472E+01  0.2899E+03
     47.324  0.7999E+01  0.2901E+03
     47.349  0.6868E+01  0.2902E+03
     47.374  0.8336E+01  0.2904E+03
     47.398  0.7483E+01  0.2906E+03
     47.423  0.5115E+01  0.2908E+03
     47.448  0.6473E+01  0.2909E+03
     47.473  0.6902E+01  0.2911E+03
     47.498  0.6284E+01  0.2912E+03
     47.522  0.6816E+01  0.2914E+03
     47.547  0.9567E+01  0.2917E+03
     47.572  0.5782E+01  0.2918E+03
     47.597  0.6022E+01  0.2919E+03
     47.622  0.7855E+01  0.2921E+03
     47.646  0.6761E+01  0.2923E+03
     47.671  0.6260E+01  0.2925E+03
     47.696  0.8407E+01  0.2927E+03
     47.721  0.6265E+01  0.2928E+03
     47.745  0.7362E+01  0.2930E+03
     47.770  0.8879E+01  0.2932E+03
     47.795  0.9734E+01  0.2935E+03
     47.820  0.7352E+01  0.2937E+03
     47.845  0.7515E+01  0.2938E+03
     47.869  0.5585E+01  0.2940E+03
     47.894  0.7731E+01  0.2942E+03
     47.919  0.8856E+01  0.2944E+03
     47.944  0.6649E+01  0.2946E+03
     47.969  0.5468E+01  0.2947E+03
     47.993  0.6518E+01  0.2949E+03
     48.018  0.5371E+01  0.2950E+03
     48.043  0.6287E+01  0.2951E+03
     48.068  0.7950E+01  0.2953E+03
     48.092  0.6479E+01  0.2955E+03
     48.117  0.6050E+01  0.2956E+03
     48.142  0.8426E+01  0.2959E+03
     48.167  0.4553E+01  0.2960E+03
     48.192  0.5788E+01  0.2961E+03
     48.216  0.7572E+01  0.2963E+03
     48.241  0.5890E+01  0.2964E+03
     48.266  0.6762E+01  0.2966E+03
     48.291  0.8922E+01  0.2968E+03
     48.316  0.6741E+01  0.2970E+03
     48.340  0.6435E+01  0.2972E+03
     48.365  0.6128E+01  0.2973E+03
     48.390  0.9437E+01  0.2975E+03
     48.415  0.6730E+01  0.2977E+03
     48.439  0.5577E+01  0.2979E+03
     48.464  0.6102E+01  0.2980E+03
     48.489  0.5849E+01  0.2981E+03
     48.514  0.6568E+01  0.2983E+03
     48.539  0.6969E+01  0.2985E+03
     48.563  0.9080E+01  0.2987E+03
     48.588  0.7762E+01  0.2989E+03
     48.613  0.1120E+02  0.2992E+03
     48.638  0.1229E+02  0.2995E+03
     48.663  0.1107E+02  0.2998E+03
     48.687  0.6667E+01  0.2999E+03
     48.712  0.5933E+01  0.3001E+03
     48.737  0.5518E+01  0.3002E+03
     48.762  0.7257E+01  0.3004E+03
     48.787  0.7249E+01  0.3006E+03
     48.811  0.7708E+01  0.3008E+03
     48.836  0.5452E+01  0.3009E+03
     48.861  0.6162E+01  0.3010E+03
     48.886  0.6128E+01  0.3012E+03
     48.910  0.8167E+01  0.3014E+03
     48.935  0.6570E+01  0.3016E+03
     48.960  0.8224E+01  0.3018E+03
     48.985  0.7537E+01  0.3020E+03
     49.010  0.9887E+01  0.3022E+03
     49.034  0.8463E+01  0.3024E+03
     49.059  0.7645E+01  0.3026E+03
     49.084  0.7605E+01  0.3028E+03
     49.109  0.5524E+01  0.3029E+03
     49.134  0.7988E+01  0.3031E+03
     49.158  0.9381E+01  0.3034E+03
     49.183  0.5856E+01  0.3035E+03
     49.208  0.7714E+01  0.3037E+03
     49.233  0.7744E+01  0.3039E+03
     49.257  0.6393E+01  0.3040E+03
     49.282  0.4688E+01  0.3042E+03
     49.307  0.7987E+01  0.3044E+03
     49.332  0.8160E+01  0.3046E+03
     49.357  0.8141E+01  0.3048E+03
     49.381  0.7655E+01  0.3049E+03
     49.406  0.9284E+01  0.3052E+03
     49.431  0.5860E+01  0.3053E+03
     49.456  0.1049E+02  0.3056E+03
     49.481  0.7961E+01  0.3058E+03
     49.505  0.4924E+01  0.3059E+03
     49.530  0.7208E+01  0.3061E+03
     49.555  0.7532E+01  0.3063E+03
     49.580  0.7528E+01  0.3065E+03
     49.604  0.6397E+01  0.3066E+03
     49.629  0.9228E+01  0.3068E+03
     49.654  0.6831E+01  0.3070E+03
     49.679  0.6024E+01  0.3072E+03
     49.704  0.7386E+01  0.3073E+03
     49.728  0.8811E+01  0.3076E+03
     49.753  0.6897E+01  0.3077E+03
     49.778  0.6929E+01  0.3079E+03
     49.803  0.9465E+01  0.3081E+03
     49.828  0.8769E+01  0.3084E+03
     49.852  0.6998E+01  0.3085E+03
     49.877  0.8444E+01  0.3087E+03
     49.902  0.7615E+01  0.3089E+03
     49.927  0.7207E+01  0.3091E+03
     49.952  0.5330E+01  0.3092E+03
     49.976  0.5618E+01  0.3094E+03
     50.001  0.6675E+01  0.3095E+03
     50.026  0.8794E+01  0.3098E+03
     50.051  0.5925E+01  0.3099E+03
     50.075  0.7414E+01  0.3101E+03
     50.100  0.7039E+01  0.3103E+03
     50.125  0.9788E+01  0.3105E+03
     50.150  0.8483E+01  0.3107E+03
     50.175  0.1017E+02  0.3110E+03
     50.199  0.7716E+01  0.3112E+03
     50.224  0.6162E+01  0.3113E+03
     50.249  0.8698E+01  0.3115E+03
     50.274  0.9459E+01  0.3118E+03
     50.299  0.8894E+01  0.3120E+03
     50.323  0.6029E+01  0.3121E+03
     50.348  0.6595E+01  0.3123E+03
     50.373  0.3731E+01  0.3124E+03
     50.398  0.7209E+01  0.3126E+03
     50.422  0.7539E+01  0.3128E+03
     50.447  0.9538E+01  0.3130E+03
     50.472  0.7079E+01  0.3132E+03
     50.497  0.6280E+01  0.3133E+03
     50.522  0.4432E+01  0.3134E+03
     50.546  0.6705E+01  0.3136E+03
     50.571  0.1001E+02  0.3139E+03
     50.596  0.8115E+01  0.3141E+03
     50.621  0.6628E+01  0.3142E+03
     50.646  0.7926E+01  0.3144E+03
     50.670  0.1131E+02  0.3147E+03
     50.695  0.8561E+01  0.3149E+03
     50.720  0.6413E+01  0.3151E+03
     50.745  0.6859E+01  0.3152E+03
     50.770  0.5983E+01  0.3154E+03
     50.794  0.7239E+01  0.3156E+03
     50.819  0.8225E+01  0.3158E+03
     50.844  0.9382E+01  0.3160E+03
     50.869  0.9559E+01  0.3162E+03
     50.893  0.8045E+01  0.3164E+03
     50.918  0.9535E+01  0.3167E+03
     50.943  0.7064E+01  0.3168E+03
     50.968  0.6385E+01  0.3170E+03
     50.993  0.7674E+01  0.3172E+03
     51.017  0.7291E+01  0.3174E+03
     51.042  0.9278E+01  0.3176E+03
     51.067  0.7765E+01  0.3178E+03
     51.092  0.9547E+01  0.3180E+03
     51.117  0.9149E+01  0.3183E+03
     51.141  0.7394E+01  0.3184E+03
     51.166  0.5392E+01  0.3186E+03
     51.191  0.6166E+01  0.3187E+03
     51.216  0.9069E+01  0.3190E+03
     51.240  0.8209E+01  0.3192E+03
     51.265  0.7942E+01  0.3194E+03
     51.290  0.9867E+01  0.3196E+03
     51.315  0.5659E+01  0.3197E+03
     51.340  0.8345E+01  0.3199E+03
     51.364  0.1146E+02  0.3202E+03
     51.389  0.7130E+01  0.3204E+03
     51.414  0.7196E+01  0.3206E+03
     51.439  0.9428E+01  0.3208E+03
     51.464  0.8985E+01  0.3210E+03
     51.488  0.1098E+02  0.3213E+03
     51.513  0.6877E+01  0.3215E+03
     51.538  0.6114E+01  0.3216E+03
     51.563  0.8416E+01  0.3218E+03
     51.587  0.7632E+01  0.3220E+03
     51.612  0.7320E+01  0.3222E+03
     51.637  0.9165E+01  0.3224E+03
     51.662  0.7751E+01  0.3226E+03
     51.687  0.6083E+01  0.3228E+03
     51.711  0.1093E+02  0.3231E+03
     51.736  0.7392E+01  0.3232E+03
     51.761  0.7824E+01  0.3234E+03
     51.786  0.7594E+01  0.3236E+03
     51.811  0.9558E+01  0.3239E+03
     51.835  0.1017E+02  0.3241E+03
     51.860  0.8511E+01  0.3243E+03
     51.885  0.8713E+01  0.3245E+03
     51.910  0.7941E+01  0.3247E+03
     51.935  0.5719E+01  0.3249E+03
     51.959  0.7388E+01  0.3251E+03
     51.984  0.6817E+01  0.3252E+03
     52.009  0.7286E+01  0.3254E+03
     52.034  0.9497E+01  0.3256E+03
     52.058  0.7777E+01  0.3258E+03
     52.083  0.5218E+01  0.3260E+03
     52.108  0.8590E+01  0.3262E+03
     52.133  0.7008E+01  0.3264E+03
     52.158  0.9630E+01  0.3266E+03
     52.182  0.7379E+01  0.3268E+03
     52.207  0.9432E+01  0.3270E+03
     52.232  0.9102E+01  0.3272E+03
     52.257  0.6843E+01  0.3274E+03
     52.282  0.9704E+01  0.3276E+03
     52.306  0.7633E+01  0.3278E+03
     52.331  0.8396E+01  0.3280E+03
     52.356  0.9231E+01  0.3283E+03
     52.381  0.1023E+02  0.3285E+03
     52.405  0.8122E+01  0.3287E+03
     52.430  0.8283E+01  0.3289E+03
     52.455  0.6122E+01  0.3291E+03
     52.480  0.7721E+01  0.3293E+03
     52.505  0.9296E+01  0.3295E+03
     52.529  0.7496E+01  0.3297E+03
     52.554  0.9313E+01  0.3299E+03
     52.579  0.7851E+01  0.3301E+03
     52.604  0.6828E+01  0.3303E+03
     52.629  0.6526E+01  0.3304E+03
     52.653  0.7578E+01  0.3306E+03
     52.678  0.7010E+01  0.3308E+03
     52.703  0.6837E+01  0.3310E+03
     52.728  0.8561E+01  0.3312E+03
     52.753  0.1006E+02  0.3314E+03
     52.777  0.7622E+01  0.3316E+03
     52.802  0.1162E+02  0.3319E+03
     52.827  0.9697E+01  0.3322E+03
     52.852  0.5021E+01  0.3323E+03
     52.876  0.6312E+01  0.3324E+03
     52.901  0.7645E+01  0.3326E+03
     52.926  0.9146E+01  0.3329E+03
     52.951  0.7005E+01  0.3330E+03
     52.976  0.6963E+01  0.3332E+03
     53.000  0.6358E+01  0.3334E+03
     53.025  0.8445E+01  0.3336E+03
     53.050  0.8242E+01  0.3338E+03
     53.075  0.8493E+01  0.3340E+03
     53.100  0.7440E+01  0.3342E+03
     53.124  0.6237E+01  0.3343E+03
     53.149  0.7599E+01  0.3345E+03
     53.174  0.9509E+01  0.3347E+03
     53.199  0.1032E+02  0.3350E+03
     53.223  0.8804E+01  0.3352E+03
     53.248  0.6554E+01  0.3354E+03
     53.273  0.9542E+01  0.3356E+03
     53.298  0.7355E+01  0.3358E+03
     53.323  0.7119E+01  0.3360E+03
     53.347  0.8537E+01  0.3362E+03
     53.372  0.8271E+01  0.3364E+03
     53.397  0.7089E+01  0.3366E+03
     53.422  0.8165E+01  0.3368E+03
     53.447  0.5379E+01  0.3369E+03
     53.471  0.7562E+01  0.3371E+03
     53.496  0.7707E+01  0.3373E+03
     53.521  0.7614E+01  0.3375E+03
     53.546  0.9381E+01  0.3377E+03
     53.570  0.1008E+02  0.3380E+03
     53.595  0.9211E+01  0.3382E+03
     53.620  0.9691E+01  0.3384E+03
     53.645  0.8892E+01  0.3386E+03
     53.670  0.9784E+01  0.3389E+03
     53.694  0.6939E+01  0.3391E+03
     53.719  0.9379E+01  0.3393E+03
     53.744  0.6814E+01  0.3395E+03
     53.769  0.7570E+01  0.3396E+03
     53.794  0.9095E+01  0.3399E+03
     53.818  0.5565E+01  0.3400E+03
     53.843  0.3694E+01  0.3401E+03
     53.868  0.6286E+01  0.3403E+03
     53.893  0.1050E+02  0.3405E+03
     53.918  0.8748E+01  0.3407E+03
     53.942  0.1009E+02  0.3410E+03
     53.967  0.7539E+01  0.3412E+03
     53.992  0.6978E+01  0.3413E+03
     54.017  0.8117E+01  0.3415E+03
     54.041  0.1025E+02  0.3418E+03
     54.066  0.7030E+01  0.3420E+03
     54.091  0.7143E+01  0.3422E+03
     54.116  0.1089E+02  0.3424E+03
     54.141  0.1038E+02  0.3427E+03
     54.165  0.6775E+01  0.3428E+03
     54.190  0.7083E+01  0.3430E+03
     54.215  0.7428E+01  0.3432E+03
     54.240  0.7282E+01  0.3434E+03
     54.265  0.9221E+01  0.3436E+03
     54.289  0.1095E+02  0.3439E+03
     54.314  0.7647E+01  0.3441E+03
     54.339  0.6724E+01  0.3442E+03
     54.364  0.7826E+01  0.3444E+03
     54.388  0.8577E+01  0.3447E+03
     54.413  0.8178E+01  0.3449E+03
     54.438  0.5786E+01  0.3450E+03
     54.463  0.7097E+01  0.3452E+03
     54.488  0.9874E+01  0.3454E+03
     54.512  0.9927E+01  0.3457E+03
     54.537  0.9021E+01  0.3459E+03
     54.562  0.8075E+01  0.3461E+03
     54.587  0.8490E+01  0.3463E+03
     54.612  0.6930E+01  0.3465E+03
     54.636  0.7597E+01  0.3467E+03
     54.661  0.9777E+01  0.3469E+03
     54.686  0.1079E+02  0.3472E+03
     54.711  0.6106E+01  0.3473E+03
     54.736  0.6129E+01  0.3475E+03
     54.760  0.6968E+01  0.3476E+03
     54.785  0.7001E+01  0.3478E+03
     54.810  0.8066E+01  0.3480E+03
     54.835  0.6501E+01  0.3482E+03
     54.859  0.5959E+01  0.3483E+03
     54.884  0.7503E+01  0.3485E+03
     54.909  0.7695E+01  0.3487E+03
     54.934  0.8570E+01  0.3489E+03
     54.959  0.9834E+01  0.3492E+03
     54.983  0.8858E+01  0.3494E+03
     55.008  0.6650E+01  0.3495E+03
     55.033  0.8102E+01  0.3497E+03
     55.058  0.6701E+01  0.3499E+03
     55.083  0.7668E+01  0.3501E+03
     55.107  0.6829E+01  0.3503E+03
     55.132  0.8649E+01  0.3505E+03
     55.157  0.9009E+01  0.3507E+03
     55.182  0.8469E+01  0.3509E+03
     55.206  0.9372E+01  0.3511E+03
     55.231  0.9388E+01  0.3514E+03
     55.256  0.6830E+01  0.3516E+03
     55.281  0.4707E+01  0.3517E+03
     55.306  0.6530E+01  0.3518E+03
     55.330  0.8744E+01  0.3520E+03
     55.355  0.6828E+01  0.3522E+03
     55.380  0.9848E+01  0.3525E+03
     55.405  0.9918E+01  0.3527E+03
     55.430  0.9086E+01  0.3529E+03
     55.454  0.7282E+01  0.3531E+03
     55.479  0.6629E+01  0.3533E+03
     55.504  0.6632E+01  0.3534E+03
     55.529  0.6029E+01  0.3536E+03
     55.553  0.6969E+01  0.3538E+03
     55.578  0.8225E+01  0.3540E+03
     55.603  0.7755E+01  0.3542E+03
     55.628  0.6967E+01  0.3543E+03
     55.653  0.6133E+01  0.3545E+03
     55.677  0.8095E+01  0.3547E+03
     55.702  0.9129E+01  0.3549E+03
     55.727  0.8911E+01  0.3551E+03
     55.752  0.6781E+01  0.3553E+03
     55.777  0.1079E+02  0.3556E+03
     55.801  0.7155E+01  0.3557E+03
     55.826  0.7099E+01  0.3559E+03
     55.851  0.8608E+01  0.3561E+03
     55.876  0.9652E+01  0.3564E+03
     55.901  0.5432E+01  0.3565E+03
     55.925  0.8916E+01  0.3567E+03
     55.950  0.9898E+01  0.3570E+03
     55.975  0.9160E+01  0.3572E+03
     56.000  0.6956E+01  0.3574E+03
     56.024  0.7126E+01  0.3575E+03
     56.049  0.8320E+01  0.3578E+03
     56.074  0.8335E+01  0.3580E+03
     56.099  0.7034E+01  0.3581E+03
     56.124  0.5736E+01  0.3583E+03
     56.148  0.7631E+01  0.3585E+03
     56.173  0.8388E+01  0.3587E+03
     56.198  0.8030E+01  0.3589E+03
     56.223  0.7046E+01  0.3590E+03
     56.248  0.7850E+01  0.3592E+03
     56.272  0.8376E+01  0.3595E+03
     56.297  0.8847E+01  0.3597E+03
     56.322  0.8694E+01  0.3599E+03
     56.347  0.8092E+01  0.3601E+03
     56.371  0.9721E+01  0.3603E+03
     56.396  0.1015E+02  0.3606E+03
     56.421  0.5573E+01  0.3607E+03
     56.446  0.7437E+01  0.3609E+03
     56.471  0.7196E+01  0.3611E+03
     56.495  0.7604E+01  0.3613E+03
     56.520  0.9643E+01  0.3615E+03
     56.545  0.1075E+02  0.3618E+03
     56.570  0.6230E+01  0.3619E+03
     56.595  0.9512E+01  0.3622E+03
     56.619  0.8310E+01  0.3624E+03
     56.644  0.6217E+01  0.3625E+03
     56.669  0.6379E+01  0.3627E+03
     56.694  0.6060E+01  0.3628E+03
     56.719  0.6968E+01  0.3630E+03
     56.743  0.8068E+01  0.3632E+03
     56.768  0.7927E+01  0.3634E+03
     56.793  0.8322E+01  0.3636E+03
     56.818  0.6448E+01  0.3638E+03
     56.842  0.9625E+01  0.3640E+03
     56.867  0.8250E+01  0.3642E+03
     56.892  0.1026E+02  0.3645E+03
     56.917  0.1104E+02  0.3647E+03
     56.942  0.6739E+01  0.3649E+03
     56.966  0.7516E+01  0.3651E+03
     56.991  0.8820E+01  0.3653E+03
     57.016  0.8241E+01  0.3655E+03
     57.041  0.7290E+01  0.3657E+03
     57.066  0.1085E+02  0.3660E+03
     57.090  0.6839E+01  0.3661E+03
     57.115  0.5718E+01  0.3663E+03
     57.140  0.7152E+01  0.3665E+03
     57.165  0.7732E+01  0.3666E+03
     57.189  0.4620E+01  0.3668E+03
     57.214  0.6986E+01  0.3669E+03
     57.239  0.7383E+01  0.3671E+03
     57.264  0.9632E+01  0.3674E+03
     57.289  0.9482E+01  0.3676E+03
     57.313  0.8172E+01  0.3678E+03
     57.338  0.6823E+01  0.3680E+03
     57.363  0.7555E+01  0.3681E+03
     57.388  0.8761E+01  0.3684E+03
     57.413  0.8585E+01  0.3686E+03
     57.437  0.1049E+02  0.3688E+03
     57.462  0.7513E+01  0.3690E+03
     57.487  0.8188E+01  0.3692E+03
     57.512  0.8220E+01  0.3694E+03
     57.536  0.6968E+01  0.3696E+03
     57.561  0.1197E+02  0.3699E+03
     57.586  0.8255E+01  0.3701E+03
     57.611  0.7738E+01  0.3703E+03
     57.636  0.7556E+01  0.3705E+03
     57.660  0.7254E+01  0.3707E+03
     57.685  0.7277E+01  0.3708E+03
     57.710  0.7885E+01  0.3710E+03
     57.735  0.9176E+01  0.3713E+03
     57.760  0.6565E+01  0.3714E+03
     57.784  0.9213E+01  0.3717E+03
     57.809  0.9424E+01  0.3719E+03
     57.834  0.1175E+02  0.3722E+03
     57.859  0.7306E+01  0.3724E+03
     57.884  0.6214E+01  0.3725E+03
     57.908  0.6116E+01  0.3727E+03
     57.933  0.7103E+01  0.3728E+03
     57.958  0.8940E+01  0.3731E+03
     57.983  0.9162E+01  0.3733E+03
     58.007  0.7765E+01  0.3735E+03
     58.032  0.9725E+01  0.3737E+03
     58.057  0.7679E+01  0.3739E+03
     58.082  0.9711E+01  0.3742E+03
     58.107  0.9153E+01  0.3744E+03
     58.131  0.7238E+01  0.3746E+03
     58.156  0.5302E+01  0.3747E+03
     58.181  0.7963E+01  0.3749E+03
     58.206  0.8821E+01  0.3751E+03
     58.231  0.6092E+01  0.3753E+03
     58.255  0.7030E+01  0.3754E+03
     58.280  0.8354E+01  0.3756E+03
     58.305  0.7211E+01  0.3758E+03
     58.330  0.8194E+01  0.3760E+03
     58.354  0.7135E+01  0.3762E+03
     58.379  0.9398E+01  0.3764E+03
     58.404  0.7733E+01  0.3766E+03
     58.429  0.9654E+01  0.3769E+03
     58.454  0.7097E+01  0.3770E+03
     58.478  0.4106E+01  0.3771E+03
     58.503  0.6607E+01  0.3773E+03
     58.528  0.8377E+01  0.3775E+03
     58.553  0.8331E+01  0.3777E+03
     58.578  0.1090E+02  0.3780E+03
     58.602  0.9494E+01  0.3782E+03
     58.627  0.8523E+01  0.3784E+03
     58.652  0.7152E+01  0.3786E+03
     58.677  0.7505E+01  0.3788E+03
     58.701  0.6106E+01  0.3790E+03
     58.726  0.1009E+02  0.3792E+03
     58.751  0.9309E+01  0.3794E+03
     58.776  0.7264E+01  0.3796E+03
     58.801  0.8329E+01  0.3798E+03
     58.825  0.1149E+02  0.3801E+03
     58.850  0.8392E+01  0.3803E+03
     58.875  0.6998E+01  0.3805E+03
     58.900  0.9087E+01  0.3807E+03
     58.925  0.4857E+01  0.3808E+03
     58.949  0.6581E+01  0.3810E+03
     58.974  0.8602E+01  0.3812E+03
     58.999  0.1028E+02  0.3815E+03
     59.024  0.1053E+02  0.3817E+03
     59.049  0.8086E+01  0.3819E+03
     59.073  0.5800E+01  0.3821E+03
     59.098  0.9851E+01  0.3823E+03
     59.123  0.7121E+01  0.3825E+03
     59.148  0.8340E+01  0.3827E+03
     59.172  0.1234E+02  0.3830E+03
     59.197  0.7835E+01  0.3832E+03
     59.222  0.7252E+01  0.3834E+03
     59.247  0.8912E+01  0.3836E+03
     59.272  0.8985E+01  0.3838E+03
     59.296  0.7669E+01  0.3840E+03
     59.321  0.4727E+01  0.3841E+03
     59.346  0.8162E+01  0.3843E+03
     59.371  0.9504E+01  0.3846E+03
     59.396  0.1051E+02  0.3848E+03
     59.420  0.1087E+02  0.3851E+03
     59.445  0.9994E+01  0.3853E+03
     59.470  0.7471E+01  0.3855E+03
     59.495  0.8558E+01  0.3857E+03
     59.519  0.7833E+01  0.3859E+03
     59.544  0.6869E+01  0.3861E+03
     59.569  0.1006E+02  0.3864E+03
     59.594  0.1094E+02  0.3866E+03
     59.619  0.6899E+01  0.3868E+03
     59.643  0.7613E+01  0.3870E+03
     59.668  0.6258E+01  0.3871E+03
     59.693  0.6971E+01  0.3873E+03
     59.718  0.6197E+01  0.3875E+03
     59.743  0.7506E+01  0.3877E+03
     59.767  0.8650E+01  0.3879E+03
     59.792  0.1001E+02  0.3881E+03
     59.817  0.9963E+01  0.3884E+03
     59.842  0.7457E+01  0.3885E+03
     59.867  0.6925E+01  0.3887E+03
     59.891  0.6590E+01  0.3889E+03
     59.916  0.9716E+01  0.3891E+03
     59.941  0.6107E+01  0.3893E+03
     59.966  0.9233E+01  0.3895E+03
     59.990  0.7516E+01  0.3897E+03
     60.015  0.1204E+02  0.3900E+03
     60.040  0.7102E+01  0.3902E+03
     60.065  0.8753E+01  0.3904E+03
     60.090  0.7723E+01  0.3906E+03
     60.114  0.1116E+02  0.3909E+03
     60.139  0.8392E+01  0.3911E+03
     60.164  0.7305E+01  0.3912E+03
     60.189  0.1060E+02  0.3915E+03
     60.214  0.7779E+01  0.3917E+03
     60.238  0.9303E+01  0.3919E+03
     60.263  0.9538E+01  0.3922E+03
     60.288  0.8691E+01  0.3924E+03
     60.313  0.7433E+01  0.3926E+03
     60.337  0.8157E+01  0.3928E+03
     60.362  0.6270E+01  0.3929E+03
     60.387  0.6943E+01  0.3931E+03
     60.412  0.9608E+01  0.3933E+03
     60.437  0.7766E+01  0.3935E+03
     60.461  0.5438E+01  0.3937E+03
     60.486  0.4901E+01  0.3938E+03
     60.511  0.9310E+01  0.3940E+03
     60.536  0.8556E+01  0.3942E+03
     60.561  0.9675E+01  0.3945E+03
     60.585  0.1242E+02  0.3948E+03
     60.610  0.8108E+01  0.3950E+03
     60.635  0.6466E+01  0.3951E+03
     60.660  0.7617E+01  0.3953E+03
     60.684  0.7552E+01  0.3955E+03
     60.709  0.7080E+01  0.3957E+03
     60.734  0.9992E+01  0.3959E+03
     60.759  0.1081E+02  0.3962E+03
     60.784  0.6873E+01  0.3964E+03
     60.808  0.7715E+01  0.3966E+03
     60.833  0.4974E+01  0.3967E+03
     60.858  0.8004E+01  0.3969E+03
     60.883  0.7313E+01  0.3971E+03
     60.908  0.8406E+01  0.3973E+03
     60.932  0.6852E+01  0.3974E+03
     60.957  0.8237E+01  0.3976E+03
     60.982  0.7781E+01  0.3978E+03
     61.007  0.5480E+01  0.3980E+03
     61.032  0.9596E+01  0.3982E+03
     61.056  0.8017E+01  0.3984E+03
     61.081  0.8083E+01  0.3986E+03
     61.106  0.7450E+01  0.3988E+03
     61.131  0.6145E+01  0.3989E+03
     61.155  0.7476E+01  0.3991E+03
     61.180  0.6870E+01  0.3993E+03
     61.205  0.7858E+01  0.3995E+03
     61.230  0.8520E+01  0.3997E+03
     61.255  0.7228E+01  0.3999E+03
     61.279  0.1046E+02  0.4001E+03
     61.304  0.5926E+01  0.4003E+03
     61.329  0.7731E+01  0.4005E+03
     61.354  0.7657E+01  0.4007E+03
     61.379  0.6108E+01  0.4008E+03
     61.403  0.1034E+02  0.4011E+03
     61.428  0.1035E+02  0.4013E+03
     61.453  0.1142E+02  0.4016E+03
     61.478  0.8233E+01  0.4018E+03
     61.502  0.6949E+01  0.4020E+03
     61.527  0.5683E+01  0.4021E+03
     61.552  0.4981E+01  0.4023E+03
     61.577  0.7832E+01  0.4025E+03
     61.602  0.6445E+01  0.4026E+03
     61.626  0.7958E+01  0.4028E+03
     61.651  0.9976E+01  0.4031E+03
     61.676  0.9137E+01  0.4033E+03
     61.701  0.7745E+01  0.4035E+03
     61.726  0.9466E+01  0.4037E+03
     61.750  0.6152E+01  0.4039E+03
     61.775  0.5988E+01  0.4040E+03
     61.800  0.6802E+01  0.4042E+03
     61.825  0.8645E+01  0.4044E+03
     61.850  0.1095E+02  0.4047E+03
     61.874  0.7391E+01  0.4049E+03
     61.899  0.7051E+01  0.4050E+03
     61.924  0.8706E+01  0.4052E+03
     61.949  0.6519E+01  0.4054E+03
     61.973  0.1032E+02  0.4057E+03
     61.998  0.5956E+01  0.4058E+03
     62.023  0.7167E+01  0.4060E+03
     62.048  0.8424E+01  0.4062E+03
     62.073  0.8596E+01  0.4064E+03
     62.097  0.7412E+01  0.4066E+03
     62.122  0.7724E+01  0.4068E+03
     62.147  0.8710E+01  0.4070E+03
     62.172  0.8407E+01  0.4072E+03
     62.197  0.1286E+02  0.4075E+03
     62.221  0.9256E+01  0.4078E+03
     62.246  0.8842E+01  0.4080E+03
     62.271  0.8015E+01  0.4082E+03
     62.296  0.8939E+01  0.4084E+03
     62.320  0.6809E+01  0.4086E+03
     62.345  0.8351E+01  0.4088E+03
     62.370  0.9837E+01  0.4090E+03
     62.395  0.8433E+01  0.4092E+03
     62.420  0.9201E+01  0.4095E+03
     62.444  0.5652E+01  0.4096E+03
     62.469  0.9669E+01  0.4098E+03
     62.494  0.8287E+01  0.4100E+03
     62.519  0.1181E+02  0.4103E+03
     62.544  0.1028E+02  0.4106E+03
     62.568  0.8233E+01  0.4108E+03
     62.593  0.8624E+01  0.4110E+03
     62.618  0.6473E+01  0.4112E+03
     62.643  0.9001E+01  0.4114E+03
     62.667  0.1072E+02  0.4117E+03
     62.692  0.8803E+01  0.4119E+03
     62.717  0.7060E+01  0.4120E+03
     62.742  0.5883E+01  0.4122E+03
     62.767  0.6382E+01  0.4123E+03
     62.791  0.9223E+01  0.4126E+03
     62.816  0.1067E+02  0.4128E+03
     62.841  0.6227E+01  0.4130E+03
     62.866  0.8876E+01  0.4132E+03
     62.891  0.7952E+01  0.4134E+03
     62.915  0.8644E+01  0.4136E+03
     62.940  0.1038E+02  0.4139E+03
     62.965  0.7489E+01  0.4141E+03
     62.990  0.9359E+01  0.4143E+03
     63.015  0.1050E+02  0.4146E+03
     63.039  0.9539E+01  0.4148E+03
     63.064  0.7533E+01  0.4150E+03
     63.089  0.8537E+01  0.4152E+03
     63.114  0.9976E+01  0.4154E+03
     63.138  0.7458E+01  0.4156E+03
     63.163  0.8195E+01  0.4158E+03
     63.188  0.9660E+01  0.4161E+03
     63.213  0.6647E+01  0.4162E+03
     63.238  0.1043E+02  0.4165E+03
     63.262  0.1045E+02  0.4168E+03
     63.287  0.6697E+01  0.4169E+03
     63.312  0.6615E+01  0.4171E+03
     63.337  0.7516E+01  0.4173E+03
     63.362  0.8797E+01  0.4175E+03
     63.386  0.6527E+01  0.4177E+03
     63.411  0.1049E+02  0.4179E+03
     63.436  0.9724E+01  0.4182E+03
     63.461  0.8585E+01  0.4184E+03
     63.485  0.9187E+01  0.4186E+03
     63.510  0.1095E+02  0.4189E+03
     63.535  0.9385E+01  0.4191E+03
     63.560  0.9146E+01  0.4193E+03
     63.585  0.7890E+01  0.4195E+03
     63.609  0.8594E+01  0.4197E+03
     63.634  0.6917E+01  0.4199E+03
     63.659  0.9774E+01  0.4201E+03
     63.684  0.9634E+01  0.4204E+03
     63.709  0.8908E+01  0.4206E+03
     63.733  0.9194E+01  0.4208E+03
     63.758  0.6751E+01  0.4210E+03
     63.783  0.8644E+01  0.4212E+03
     63.808  0.8178E+01  0.4214E+03
     63.833  0.8046E+01  0.4216E+03
     63.857  0.7439E+01  0.4218E+03
     63.882  0.8317E+01  0.4220E+03
     63.907  0.1127E+02  0.4223E+03
     63.932  0.9042E+01  0.4225E+03
     63.956  0.6259E+01  0.4227E+03
     63.981  0.1111E+02  0.4229E+03
     64.006  0.7616E+01  0.4231E+03
     64.031  0.5799E+01  0.4233E+03
     64.056  0.8262E+01  0.4235E+03
     64.080  0.8452E+01  0.4237E+03
     64.105  0.8529E+01  0.4239E+03
     64.130  0.7669E+01  0.4241E+03
     64.155  0.7868E+01  0.4243E+03
     64.180  0.7238E+01  0.4245E+03
     64.204  0.7876E+01  0.4247E+03
     64.229  0.1014E+02  0.4249E+03
     64.254  0.9014E+01  0.4251E+03
     64.279  0.1223E+02  0.4254E+03
     64.303  0.7966E+01  0.4256E+03
     64.328  0.5908E+01  0.4258E+03
     64.353  0.7603E+01  0.4260E+03
     64.378  0.9818E+01  0.4262E+03
     64.403  0.8991E+01  0.4264E+03
     64.427  0.8868E+01  0.4267E+03
     64.452  0.7056E+01  0.4268E+03
     64.477  0.8559E+01  0.4270E+03
     64.502  0.6736E+01  0.4272E+03
     64.527  0.1141E+02  0.4275E+03
     64.551  0.1314E+02  0.4278E+03
     64.576  0.8678E+01  0.4280E+03
     64.601  0.7736E+01  0.4282E+03
     64.626  0.5579E+01  0.4284E+03
     64.650  0.6351E+01  0.4285E+03
     64.675  0.7609E+01  0.4287E+03
     64.700  0.8481E+01  0.4289E+03
     64.725  0.8780E+01  0.4291E+03
     64.750  0.8107E+01  0.4293E+03
     64.774  0.8502E+01  0.4296E+03
     64.799  0.9796E+01  0.4298E+03
     64.824  0.8414E+01  0.4300E+03
     64.849  0.9801E+01  0.4302E+03
     64.874  0.9342E+01  0.4305E+03
     64.898  0.8926E+01  0.4307E+03
     64.923  0.8588E+01  0.4309E+03
     64.948  0.8352E+01  0.4311E+03
     64.973  0.7566E+01  0.4313E+03
     64.998  0.8717E+01  0.4315E+03
     65.022  0.8821E+01  0.4317E+03
     65.047  0.8061E+01  0.4319E+03
     65.072  0.8033E+01  0.4321E+03
     65.097  0.9254E+01  0.4324E+03
     65.121  0.7637E+01  0.4326E+03
     65.146  0.7941E+01  0.4328E+03
     65.171  0.7998E+01  0.4330E+03
     65.196  0.8309E+01  0.4332E+03
     65.221  0.6709E+01  0.4333E+03
     65.245  0.8936E+01  0.4335E+03
     65.270  0.8398E+01  0.4338E+03
     65.295  0.7860E+01  0.4339E+03
     65.320  0.7128E+01  0.4341E+03
     65.345  0.7506E+01  0.4343E+03
     65.369  0.1016E+02  0.4346E+03
     65.394  0.8522E+01  0.4348E+03
     65.419  0.6186E+01  0.4349E+03
     65.444  0.7061E+01  0.4351E+03
     65.468  0.9260E+01  0.4353E+03
     65.493  0.5967E+01  0.4355E+03
     65.518  0.6840E+01  0.4357E+03
     65.543  0.9569E+01  0.4359E+03
     65.568  0.8913E+01  0.4361E+03
     65.592  0.9283E+01  0.4363E+03
     65.617  0.1023E+02  0.4366E+03
     65.642  0.1276E+02  0.4369E+03
     65.667  0.7210E+01  0.4371E+03
     65.692  0.8365E+01  0.4373E+03
     65.716  0.8246E+01  0.4375E+03
     65.741  0.7641E+01  0.4377E+03
     65.766  0.4752E+01  0.4378E+03
     65.791  0.6840E+01  0.4380E+03
     65.816  0.1048E+02  0.4382E+03
     65.840  0.1058E+02  0.4385E+03
     65.865  0.9916E+01  0.4387E+03
     65.890  0.5168E+01  0.4389E+03
     65.915  0.6526E+01  0.4390E+03
     65.939  0.1023E+02  0.4393E+03
     65.964  0.9456E+01  0.4395E+03
     65.989  0.9770E+01  0.4398E+03
     66.014  0.6647E+01  0.4399E+03
     66.039  0.9710E+01  0.4402E+03
     66.063  0.7677E+01  0.4404E+03
     66.088  0.7341E+01  0.4405E+03
     66.113  0.7569E+01  0.4407E+03
     66.138  0.1207E+02  0.4410E+03
     66.163  0.7704E+01  0.4412E+03
     66.187  0.7325E+01  0.4414E+03
     66.212  0.8113E+01  0.4416E+03
     66.237  0.8208E+01  0.4418E+03
     66.262  0.7161E+01  0.4420E+03
     66.286  0.1112E+02  0.4423E+03
     66.311  0.8416E+01  0.4425E+03
     66.336  0.9973E+01  0.4427E+03
     66.361  0.8227E+01  0.4429E+03
     66.386  0.7733E+01  0.4431E+03
     66.410  0.8345E+01  0.4433E+03
     66.435  0.1058E+02  0.4436E+03
     66.460  0.1065E+02  0.4438E+03
     66.485  0.8320E+01  0.4440E+03
     66.510  0.6028E+01  0.4442E+03
     66.534  0.7936E+01  0.4444E+03
     66.559  0.1171E+02  0.4447E+03
     66.584  0.1151E+02  0.4450E+03
     66.609  0.7816E+01  0.4452E+03
     66.633  0.7495E+01  0.4453E+03
     66.658  0.7788E+01  0.4455E+03
     66.683  0.8605E+01  0.4458E+03
     66.708  0.5174E+01  0.4459E+03
     66.733  0.7392E+01  0.4461E+03
     66.757  0.8214E+01  0.4463E+03
     66.782  0.9403E+01  0.4465E+03
     66.807  0.7650E+01  0.4467E+03
     66.832  0.7435E+01  0.4469E+03
     66.857  0.1069E+02  0.4471E+03
     66.881  0.9528E+01  0.4474E+03
     66.906  0.7728E+01  0.4476E+03
     66.931  0.7797E+01  0.4478E+03
     66.956  0.9862E+01  0.4480E+03
     66.981  0.8575E+01  0.4482E+03
     67.005  0.5906E+01  0.4484E+03
     67.030  0.8432E+01  0.4486E+03
     67.055  0.8165E+01  0.4488E+03
     67.080  0.8560E+01  0.4490E+03
     67.104  0.7979E+01  0.4492E+03
     67.129  0.6871E+01  0.4494E+03
     67.154  0.8879E+01  0.4496E+03
     67.179  0.9250E+01  0.4498E+03
     67.204  0.7703E+01  0.4500E+03
     67.228  0.9181E+01  0.4502E+03
     67.253  0.9038E+01  0.4505E+03
     67.278  0.6875E+01  0.4506E+03
     67.303  0.9101E+01  0.4508E+03
     67.328  0.8736E+01  0.4511E+03
     67.352  0.1141E+02  0.4513E+03
     67.377  0.9570E+01  0.4516E+03
     67.402  0.9176E+01  0.4518E+03
     67.427  0.9751E+01  0.4521E+03
     67.451  0.9707E+01  0.4523E+03
     67.476  0.7088E+01  0.4525E+03
     67.501  0.9001E+01  0.4527E+03
     67.526  0.7723E+01  0.4529E+03
     67.551  0.5281E+01  0.4530E+03
     67.575  0.8615E+01  0.4532E+03
     67.600  0.8176E+01  0.4534E+03
     67.625  0.7323E+01  0.4536E+03
     67.650  0.1006E+02  0.4539E+03
     67.675  0.8408E+01  0.4541E+03
     67.699  0.9575E+01  0.4543E+03
     67.724  0.1048E+02  0.4546E+03
     67.749  0.9548E+01  0.4548E+03
     67.774  0.8065E+01  0.4550E+03
     67.798  0.8730E+01  0.4552E+03
     67.823  0.9135E+01  0.4554E+03
     67.848  0.1060E+02  0.4557E+03
     67.873  0.8578E+01  0.4559E+03
     67.898  0.6922E+01  0.4561E+03
     67.922  0.7151E+01  0.4563E+03
     67.947  0.1112E+02  0.4565E+03
     67.972  0.1252E+02  0.4569E+03
     67.997  0.9887E+01  0.4571E+03
     68.022  0.8701E+01  0.4573E+03
     68.046  0.7737E+01  0.4575E+03
     68.071  0.9721E+01  0.4578E+03
     68.096  0.9490E+01  0.4580E+03
     68.121  0.8003E+01  0.4582E+03
     68.146  0.8108E+01  0.4584E+03
     68.170  0.9362E+01  0.4586E+03
     68.195  0.7380E+01  0.4588E+03
     68.220  0.7055E+01  0.4590E+03
     68.245  0.8747E+01  0.4592E+03
     68.269  0.7711E+01  0.4594E+03
     68.294  0.8920E+01  0.4596E+03
     68.319  0.1104E+02  0.4599E+03
     68.344  0.1069E+02  0.4601E+03
     68.369  0.8093E+01  0.4603E+03
     68.393  0.6404E+01  0.4605E+03
     68.418  0.6773E+01  0.4607E+03
     68.443  0.8908E+01  0.4609E+03
     68.468  0.8497E+01  0.4611E+03
     68.493  0.9079E+01  0.4613E+03
     68.517  0.6247E+01  0.4615E+03
     68.542  0.8898E+01  0.4617E+03
     68.567  0.8949E+01  0.4619E+03
     68.592  0.8352E+01  0.4621E+03
     68.616  0.1080E+02  0.4624E+03
     68.641  0.9699E+01  0.4626E+03
     68.666  0.9348E+01  0.4629E+03
     68.691  0.8479E+01  0.4631E+03
     68.716  0.1130E+02  0.4634E+03
     68.740  0.7276E+01  0.4635E+03
     68.765  0.4584E+01  0.4637E+03
     68.790  0.8375E+01  0.4639E+03
     68.815  0.6499E+01  0.4640E+03
     68.840  0.1052E+02  0.4643E+03
     68.864  0.7533E+01  0.4645E+03
     68.889  0.8185E+01  0.4647E+03
     68.914  0.1169E+02  0.4650E+03
     68.939  0.1079E+02  0.4652E+03
     68.964  0.6711E+01  0.4654E+03
     68.988  0.6800E+01  0.4656E+03
     69.013  0.8555E+01  0.4658E+03
     69.038  0.9873E+01  0.4660E+03
     69.063  0.9358E+01  0.4663E+03
     69.087  0.9146E+01  0.4665E+03
     69.112  0.6019E+01  0.4666E+03
     69.137  0.9395E+01  0.4669E+03
     69.162  0.8894E+01  0.4671E+03
     69.187  0.7941E+01  0.4673E+03
     69.211  0.7920E+01  0.4675E+03
     69.236  0.8260E+01  0.4677E+03
     69.261  0.7332E+01  0.4679E+03
     69.286  0.8496E+01  0.4681E+03
     69.311  0.9684E+01  0.4683E+03
     69.335  0.9235E+01  0.4685E+03
     69.360  0.7193E+01  0.4687E+03
     69.385  0.8113E+01  0.4689E+03
     69.410  0.8428E+01  0.4691E+03
     69.434  0.7803E+01  0.4693E+03
     69.459  0.8594E+01  0.4695E+03
     69.484  0.5171E+01  0.4697E+03
     69.509  0.7518E+01  0.4699E+03
     69.534  0.1102E+02  0.4701E+03
     69.558  0.1190E+02  0.4704E+03
     69.583  0.1006E+02  0.4707E+03
     69.608  0.7718E+01  0.4709E+03
     69.633  0.8532E+01  0.4711E+03
     69.658  0.1064E+02  0.4713E+03
     69.682  0.8809E+01  0.4716E+03
     69.707  0.1026E+02  0.4718E+03
     69.732  0.1032E+02  0.4721E+03
     69.757  0.7770E+01  0.4723E+03
     69.781  0.6973E+01  0.4724E+03
     69.806  0.8533E+01  0.4726E+03
     69.831  0.6467E+01  0.4728E+03
     69.856  0.7096E+01  0.4730E+03
     69.881  0.9537E+01  0.4732E+03
     69.905  0.9981E+01  0.4735E+03
     69.930  0.9286E+01  0.4737E+03
     69.955  0.8562E+01  0.4739E+03
     69.980  0.1012E+02  0.4742E+03
     70.005  0.1227E+02  0.4745E+03
     70.029  0.8509E+01  0.4747E+03
     70.054  0.9415E+01  0.4749E+03
     70.079  0.8946E+01  0.4751E+03
     70.104  0.5724E+01  0.4753E+03
     70.129  0.7570E+01  0.4755E+03
     70.153  0.6292E+01  0.4756E+03
     70.178  0.7124E+01  0.4758E+03
     70.203  0.9347E+01  0.4760E+03
     70.228  0.1172E+02  0.4763E+03
     70.252  0.9793E+01  0.4766E+03
     70.277  0.9604E+01  0.4768E+03
     70.302  0.9358E+01  0.4770E+03
     70.327  0.8784E+01  0.4772E+03
     70.352  0.7466E+01  0.4774E+03
     70.376  0.8328E+01  0.4776E+03
     70.401  0.9752E+01  0.4779E+03
     70.426  0.8126E+01  0.4781E+03
     70.451  0.9635E+01  0.4783E+03
     70.476  0.9889E+01  0.4786E+03
     70.500  0.9204E+01  0.4788E+03
     70.525  0.8872E+01  0.4790E+03
     70.550  0.5518E+01  0.4791E+03
     70.575  0.9831E+01  0.4794E+03
     70.599  0.9627E+01  0.4796E+03
     70.624  0.1078E+02  0.4799E+03
     70.649  0.1258E+02  0.4802E+03
     70.674  0.9591E+01  0.4804E+03
     70.699  0.8212E+01  0.4806E+03
     70.723  0.4109E+01  0.4807E+03
     70.748  0.9517E+01  0.4810E+03
     70.773  0.9739E+01  0.4812E+03
     70.798  0.1039E+02  0.4815E+03
     70.823  0.9485E+01  0.4817E+03
     70.847  0.8878E+01  0.4819E+03
     70.872  0.9493E+01  0.4822E+03
     70.897  0.1070E+02  0.4824E+03
     70.922  0.1135E+02  0.4827E+03
     70.947  0.6057E+01  0.4829E+03
     70.971  0.4371E+01  0.4830E+03
     70.996  0.1187E+02  0.4833E+03
     71.021  0.7806E+01  0.4835E+03
     71.046  0.9256E+01  0.4837E+03
     71.070  0.6651E+01  0.4839E+03
     71.095  0.8522E+01  0.4841E+03
     71.120  0.9567E+01  0.4843E+03
     71.145  0.1341E+02  0.4846E+03
     71.170  0.6030E+01  0.4848E+03
     71.194  0.7835E+01  0.4850E+03
     71.219  0.8090E+01  0.4852E+03
     71.244  0.1040E+02  0.4854E+03
     71.269  0.6851E+01  0.4856E+03
     71.294  0.9475E+01  0.4858E+03
     71.318  0.9755E+01  0.4861E+03
     71.343  0.8129E+01  0.4863E+03
     71.368  0.9126E+01  0.4865E+03
     71.393  0.8982E+01  0.4867E+03
     71.417  0.9236E+01  0.4870E+03
     71.442  0.8473E+01  0.4872E+03
     71.467  0.7191E+01  0.4874E+03
     71.492  0.1311E+02  0.4877E+03
     71.517  0.1215E+02  0.4880E+03
     71.541  0.9229E+01  0.4882E+03
     71.566  0.9345E+01  0.4884E+03
     71.591  0.7574E+01  0.4886E+03
     71.616  0.7864E+01  0.4888E+03
     71.641  0.8699E+01  0.4890E+03
     71.665  0.8023E+01  0.4892E+03
     71.690  0.6276E+01  0.4894E+03
     71.715  0.1002E+02  0.4896E+03
     71.740  0.1096E+02  0.4899E+03
     71.764  0.1009E+02  0.4902E+03
     71.789  0.8974E+01  0.4904E+03
     71.814  0.9505E+01  0.4906E+03
     71.839  0.9494E+01  0.4909E+03
     71.864  0.9746E+01  0.4911E+03
     71.888  0.8002E+01  0.4913E+03
     71.913  0.6362E+01  0.4915E+03
     71.938  0.7549E+01  0.4916E+03
     71.963  0.7881E+01  0.4918E+03
     71.988  0.7373E+01  0.4920E+03
     72.012  0.9982E+01  0.4923E+03
     72.037  0.7690E+01  0.4925E+03
     72.062  0.8619E+01  0.4927E+03
     72.087  0.9994E+01  0.4929E+03
     72.112  0.9560E+01  0.4932E+03
     72.136  0.8065E+01  0.4934E+03
     72.161  0.9933E+01  0.4936E+03
     72.186  0.1227E+02  0.4939E+03
     72.211  0.1148E+02  0.4942E+03
     72.235  0.9660E+01  0.4944E+03
     72.260  0.9889E+01  0.4947E+03
     72.285  0.1111E+02  0.4950E+03
     72.310  0.1008E+02  0.4952E+03
     72.335  0.8389E+01  0.4954E+03
     72.359  0.7762E+01  0.4956E+03
     72.384  0.9072E+01  0.4958E+03
     72.409  0.9109E+01  0.4961E+03
     72.434  0.6008E+01  0.4962E+03
     72.459  0.8388E+01  0.4964E+03
     72.483  0.1172E+02  0.4967E+03
     72.508  0.8838E+01  0.4969E+03
     72.533  0.9666E+01  0.4972E+03
     72.558  0.7948E+01  0.4974E+03
     72.582  0.9903E+01  0.4976E+03
     72.607  0.8104E+01  0.4978E+03
     72.632  0.8246E+01  0.4980E+03
     72.657  0.9956E+01  0.4983E+03
     72.682  0.8521E+01  0.4985E+03
     72.706  0.6493E+01  0.4986E+03
     72.731  0.7715E+01  0.4988E+03
     72.756  0.9185E+01  0.4990E+03
     72.781  0.8267E+01  0.4993E+03
     72.806  0.9026E+01  0.4995E+03
     72.830  0.9245E+01  0.4997E+03
     72.855  0.1104E+02  0.5000E+03
     72.880  0.8428E+01  0.5002E+03
     72.905  0.8808E+01  0.5004E+03
     72.930  0.8328E+01  0.5006E+03
     72.954  0.9076E+01  0.5008E+03
     72.979  0.8496E+01  0.5010E+03
     73.004  0.1078E+02  0.5013E+03
     73.029  0.8936E+01  0.5015E+03
     73.053  0.1200E+02  0.5018E+03
     73.078  0.1136E+02  0.5021E+03
     73.103  0.8594E+01  0.5023E+03
     73.128  0.8905E+01  0.5025E+03
     73.153  0.6307E+01  0.5027E+03
     73.177  0.9701E+01  0.5029E+03
     73.202  0.8518E+01  0.5032E+03
     73.227  0.5256E+01  0.5033E+03
     73.252  0.5939E+01  0.5034E+03
     73.277  0.7774E+01  0.5036E+03
     73.301  0.8907E+01  0.5038E+03
     73.326  0.1091E+02  0.5041E+03
     73.351  0.5940E+01  0.5043E+03
     73.376  0.7003E+01  0.5044E+03
     73.400  0.9012E+01  0.5047E+03
     73.425  0.9125E+01  0.5049E+03
     73.450  0.9465E+01  0.5051E+03
     73.475  0.8087E+01  0.5053E+03
     73.500  0.8874E+01  0.5055E+03
     73.524  0.7030E+01  0.5057E+03
     73.549  0.7597E+01  0.5059E+03
     73.574  0.6606E+01  0.5061E+03
     73.599  0.1008E+02  0.5063E+03
     73.624  0.1278E+02  0.5066E+03
     73.648  0.7516E+01  0.5068E+03
     73.673  0.7296E+01  0.5070E+03
     73.698  0.7374E+01  0.5072E+03
     73.723  0.1332E+02  0.5075E+03
     73.747  0.8578E+01  0.5077E+03
     73.772  0.1058E+02  0.5080E+03
     73.797  0.9795E+01  0.5082E+03
     73.822  0.1038E+02  0.5085E+03
     73.847  0.1012E+02  0.5087E+03
     73.871  0.8247E+01  0.5089E+03
     73.896  0.8150E+01  0.5091E+03
     73.921  0.9163E+01  0.5094E+03
     73.946  0.9305E+01  0.5096E+03
     73.971  0.9513E+01  0.5098E+03
     73.995  0.8882E+01  0.5101E+03
     74.020  0.1001E+02  0.5103E+03
     74.045  0.9464E+01  0.5105E+03
     74.070  0.8856E+01  0.5108E+03
     74.095  0.7464E+01  0.5110E+03
     74.119  0.9712E+01  0.5112E+03
     74.144  0.1006E+02  0.5114E+03
     74.169  0.5053E+01  0.5116E+03
     74.194  0.7068E+01  0.5117E+03
     74.218  0.9834E+01  0.5120E+03
     74.243  0.7948E+01  0.5122E+03
     74.268  0.1217E+02  0.5125E+03
     74.293  0.1021E+02  0.5127E+03
     74.318  0.1008E+02  0.5130E+03
     74.342  0.5945E+01  0.5131E+03
     74.367  0.4782E+01  0.5133E+03
     74.392  0.6625E+01  0.5134E+03
     74.417  0.9305E+01  0.5136E+03
     74.442  0.1036E+02  0.5139E+03
     74.466  0.7928E+01  0.5141E+03
     74.491  0.7674E+01  0.5143E+03
     74.516  0.7423E+01  0.5145E+03
     74.541  0.1082E+02  0.5147E+03
     74.565  0.1030E+02  0.5150E+03
     74.590  0.1025E+02  0.5153E+03
     74.615  0.9852E+01  0.5155E+03
     74.640  0.9466E+01  0.5157E+03
     74.665  0.9016E+01  0.5160E+03
     74.689  0.1004E+02  0.5162E+03
     74.714  0.1188E+02  0.5165E+03
     74.739  0.9061E+01  0.5167E+03
     74.764  0.9296E+01  0.5170E+03
     74.789  0.8864E+01  0.5172E+03
     74.813  0.6523E+01  0.5173E+03
     74.838  0.9981E+01  0.5176E+03
     74.863  0.9077E+01  0.5178E+03
     74.888  0.8309E+01  0.5180E+03
     74.912  0.6554E+01  0.5182E+03
     74.937  0.6474E+01  0.5183E+03
     74.962  0.9890E+01  0.5186E+03
     74.987  0.9376E+01  0.5188E+03
     75.012  0.9375E+01  0.5190E+03
     75.036  0.9269E+01  0.5193E+03
     75.061  0.8161E+01  0.5195E+03
     75.086  0.1089E+02  0.5197E+03
     75.111  0.8878E+01  0.5200E+03
     75.136  0.8036E+01  0.5202E+03
     75.160  0.1122E+02  0.5204E+03
     75.185  0.8338E+01  0.5207E+03
     75.210  0.8062E+01  0.5209E+03
     75.235  0.5493E+01  0.5210E+03
     75.260  0.8454E+01  0.5212E+03
     75.284  0.9694E+01  0.5214E+03
     75.309  0.8664E+01  0.5217E+03
     75.334  0.8748E+01  0.5219E+03
     75.359  0.9857E+01  0.5221E+03
     75.383  0.8969E+01  0.5223E+03
     75.408  0.9259E+01  0.5226E+03
     75.433  0.1101E+02  0.5228E+03
     75.458  0.9676E+01  0.5231E+03
     75.483  0.5259E+01  0.5232E+03
     75.507  0.9087E+01  0.5234E+03
     75.532  0.9600E+01  0.5237E+03
     75.557  0.6406E+01  0.5238E+03
     75.582  0.5928E+01  0.5240E+03
     75.607  0.5364E+01  0.5241E+03
     75.631  0.6105E+01  0.5243E+03
     75.656  0.8855E+01  0.5245E+03
     75.681  0.7439E+01  0.5247E+03
     75.706  0.8060E+01  0.5249E+03
     75.730  0.6338E+01  0.5250E+03
     75.755  0.4245E+01  0.5251E+03
     75.780  0.4962E+01  0.5252E+03
     75.805  0.5098E+01  0.5254E+03
     75.830  0.6224E+01  0.5255E+03
     75.854  0.5778E+01  0.5257E+03
     75.879  0.7016E+01  0.5258E+03
     75.904  0.6846E+01  0.5260E+03
     75.929  0.5933E+01  0.5262E+03
     75.954  0.5340E+01  0.5263E+03
     75.978  0.3353E+01  0.5264E+03
     76.003  0.1596E+01  0.5264E+03
     76.028  0.2438E+01  0.5265E+03
     76.053  0.2767E+01  0.5265E+03
     76.078  0.3876E+01  0.5266E+03
     76.102  0.3224E+01  0.5267E+03
     76.127  0.3479E+01  0.5268E+03
     76.152  0.2408E+01  0.5269E+03
     76.177  0.2641E+01  0.5269E+03
     76.201  0.3164E+01  0.5270E+03
     76.226  0.2713E+01  0.5271E+03
     76.251  0.2793E+01  0.5272E+03
     76.276  0.4131E+01  0.5273E+03
     76.301  0.2125E+01  0.5273E+03
     76.325  0.2701E+01  0.5274E+03
     76.350  0.2569E+01  0.5274E+03
     76.375  0.1280E+01  0.5275E+03
     76.400  0.2409E+01  0.5275E+03
     76.425  0.2254E+01  0.5276E+03
     76.449  0.1481E+01  0.5276E+03
     76.474  0.2205E+01  0.5277E+03
     76.499  0.2282E+01  0.5277E+03
     76.524  0.5208E+00  0.5277E+03
     76.548  0.1018E+01  0.5278E+03
     76.573  0.1083E+00  0.5278E+03
     76.598  0.5140E+00  0.5278E+03
     76.623  0.1056E+01  0.5278E+03
     76.648  0.1223E+01  0.5278E+03
     76.672  0.6804E+00  0.5279E+03
     76.697  0.8157E+00  0.5279E+03
     76.722  0.7903E+00  0.5279E+03
     76.747  0.5044E+00  0.5279E+03
     76.772  0.4981E+00  0.5279E+03
     76.796  0.2565E-01  0.5279E+03
     76.821  0.4659E+00  0.5279E+03
     76.846  0.8707E+00  0.5280E+03
     76.871  0.1915E+00  0.5280E+03
     76.895  0.1418E+00  0.5280E+03
     76.920  0.8671E+00  0.5280E+03
     76.945  0.1566E-01  0.5280E+03
     76.970  0.1493E-07  0.5280E+03
     76.995  0.0000E+00  0.5280E+03
     77.019  0.0000E+00  0.5280E+03
     77.044  0.0000E+00  0.5280E+03
     77.069  0.0000E+00  0.5280E+03
     77.094  0.0000E+00  0.5280E+03
     77.119  0.0000E+00  0.5280E+03
     77.143  0.0000E+00  0.5280E+03
     77.168  0.0000E+00  0.5280E+03
     77.193  0.0000E+00  0.5280E+03
     77.218  0.0000E+00  0.5280E+03
     77.243  0.0000E+00  0.5280E+03
     77.267  0.0000E+00  0.5280E+03
     77.292  0.0000E+00  0.5280E+03
     77.317  0.0000E+00  0.5280E+03
     77.342  0.0000E+00  0.5280E+03
     77.366  0.1479E-14  0.5280E+03
     77.391  0.4332E-05  0.5280E+03
     77.416  0.1090E+00  0.5280E+03
     77.441  0.4015E+00  0.5280E+03
     77.466  0.1730E-02  0.5280E+03
     77.490  0.1321E-09  0.5280E+03
     77.515  0.0000E+00  0.5280E+03
     77.540  0.0000E+00  0.5280E+03
     77.565  0.0000E+00  0.5280E+03
     77.590  0.0000E+00  0.5280E+03
     77.614  0.0000E+00  0.5280E+03
     77.639  0.0000E+00  0.5280E+03
     77.664  0.0000E+00  0.5280E+03
     77.689  0.0000E+00  0.5280E+03
     77.713  0.0000E+00  0.5280E+03
     77.738  0.0000E+00  0.5280E+03
     77.763  0.0000E+00  0.5280E+03
     77.788  0.0000E+00  0.5280E+03
     77.813  0.0000E+00  0.5280E+03
     77.837  0.0000E+00  0.5280E+03
     77.862  0.0000E+00  0.5280E+03
     77.887  0.0000E+00  0.5280E+03
     77.912  0.0000E+00  0.5280E+03
     77.937  0.0000E+00  0.5280E+03
     77.961  0.0000E+00  0.5280E+03
     77.986  0.0000E+00  0.5280E+03
     78.011  0.0000E+00  0.5280E+03
     78.036  0.0000E+00  0.5280E+03
     78.061  0.0000E+00  0.5280E+03
     78.085  0.0000E+00  0.5280E+03
     78.110  0.0000E+00  0.5280E+03
     78.135  0.0000E+00  0.5280E+03
     78.160  0.0000E+00  0.5280E+03
     78.184  0.0000E+00  0.5280E+03
     78.209  0.0000E+00  0.5280E+03
     78.234  0.0000E+00  0.5280E+03
     78.259  0.0000E+00  0.5280E+03
     78.284  0.0000E+00  0.5280E+03
     78.308  0.0000E+00  0.5280E+03
     78.333  0.0000E+00  0.5280E+03
     78.358  0.0000E+00  0.5280E+03
     78.383  0.0000E+00  0.5280E+03
     78.408  0.0000E+00  0.5280E+03
     78.432  0.0000E+00  0.5280E+03
     78.457  0.0000E+00  0.5280E+03
     78.482  0.0000E+00  0.5280E+03
     78.507  0.0000E+00  0.5280E+03
     78.531  0.0000E+00  0.5280E+03
     78.556  0.0000E+00  0.5280E+03
     78.581  0.0000E+00  0.5280E+03
     78.606  0.0000E+00  0.5280E+03
     78.631  0.0000E+00  0.5280E+03
     78.655  0.0000E+00  0.5280E+03
     78.680  0.0000E+00  0.5280E+03
     78.705  0.0000E+00  0.5280E+03
     78.730  0.0000E+00  0.5280E+03
     78.755  0.0000E+00  0.5280E+03
     78.779  0.0000E+00  0.5280E+03
     78.804  0.0000E+00  0.5280E+03
     78.829  0.0000E+00  0.5280E+03
     78.854  0.0000E+00  0.5280E+03
     78.878  0.0000E+00  0.5280E+03
     78.903  0.0000E+00  0.5280E+03
     78.928  0.0000E+00  0.5280E+03
     78.953  0.0000E+00  0.5280E+03
     78.978  0.0000E+00  0.5280E+03
     79.002  0.0000E+00  0.5280E+03
     79.027  0.0000E+00  0.5280E+03
     79.052  0.0000E+00  0.5280E+03
     79.077  0.0000E+00  0.5280E+03
     79.102  0.0000E+00  0.5280E+03
     79.126  0.0000E+00  0.5280E+03
     79.151  0.0000E+00  0.5280E+03
     79.176  0.0000E+00  0.5280E+03
     79.201  0.0000E+00  0.5280E+03
     79.226  0.0000E+00  0.5280E+03
     79.250  0.0000E+00  0.5280E+03
     79.275  0.0000E+00  0.5280E+03
     79.300  0.0000E+00  0.5280E+03
     79.325  0.0000E+00  0.5280E+03
     79.349  0.0000E+00  0.5280E+03
     79.374  0.0000E+00  0.5280E+03
     79.399  0.0000E+00  0.5280E+03
     79.424  0.0000E+00  0.5280E+03
     79.449  0.0000E+00  0.5280E+03
     79.473  0.0000E+00  0.5280E+03
     79.498  0.0000E+00  0.5280E+03
     79.523  0.0000E+00  0.5280E+03
     79.548  0.0000E+00  0.5280E+03
     79.573  0.0000E+00  0.5280E+03
     79.597  0.0000E+00  0.5280E+03
     79.622  0.0000E+00  0.5280E+03
     79.647  0.0000E+00  0.5280E+03
     79.672  0.0000E+00  0.5280E+03
     79.696  0.0000E+00  0.5280E+03
     79.721  0.0000E+00  0.5280E+03
     79.746  0.0000E+00  0.5280E+03
     79.771  0.0000E+00  0.5280E+03
     79.796  0.0000E+00  0.5280E+03
     79.820  0.0000E+00  0.5280E+03
     79.845  0.0000E+00  0.5280E+03
     79.870  0.0000E+00  0.5280E+03
     79.895  0.0000E+00  0.5280E+03
     79.920  0.0000E+00  0.5280E+03
     79.944  0.0000E+00  0.5280E+03
     79.969  0.0000E+00  0.5280E+03
     79.994  0.0000E+00  0.5280E+03
     80.019  0.0000E+00  0.5280E+03
     80.044  0.0000E+00  0.5280E+03
     80.068  0.0000E+00  0.5280E+03
     80.093  0.0000E+00  0.5280E+03
     80.118  0.0000E+00  0.5280E+03
     80.143  0.0000E+00  0.5280E+03
     80.167  0.0000E+00  0.5280E+03
     80.192  0.0000E+00  0.5280E+03
     80.217  0.0000E+00  0.5280E+03
     80.242  0.0000E+00  0.5280E+03
     80.267  0.0000E+00  0.5280E+03
     80.291  0.0000E+00  0.5280E+03
     80.316  0.0000E+00  0.5280E+03
     80.341  0.0000E+00  0.5280E+03
     80.366  0.0000E+00  0.5280E+03
     80.391  0.0000E+00  0.5280E+03
     80.415  0.0000E+00  0.5280E+03
     80.440  0.0000E+00  0.5280E+03
     80.465  0.0000E+00  0.5280E+03
     80.490  0.0000E+00  0.5280E+03
     80.514  0.0000E+00  0.5280E+03
     80.539  0.0000E+00  0.5280E+03
     80.564  0.0000E+00  0.5280E+03
     80.589  0.0000E+00  0.5280E+03
     80.614  0.0000E+00  0.5280E+03
     80.638  0.0000E+00  0.5280E+03
     80.663  0.0000E+00  0.5280E+03
     80.688  0.0000E+00  0.5280E+03
     80.713  0.0000E+00  0.5280E+03
     80.738  0.0000E+00  0.5280E+03
     80.762  0.0000E+00  0.5280E+03
     80.787  0.0000E+00  0.5280E+03
     80.812  0.0000E+00  0.5280E+03
     80.837  0.0000E+00  0.5280E+03
     80.861  0.0000E+00  0.5280E+03
     80.886  0.0000E+00  0.5280E+03
     80.911  0.0000E+00  0.5280E+03
     80.936  0.0000E+00  0.5280E+03
     80.961  0.0000E+00  0.5280E+03
     80.985  0.0000E+00  0.5280E+03
     81.010  0.0000E+00  0.5280E+03
     81.035  0.0000E+00  0.5280E+03
     81.060  0.0000E+00  0.5280E+03
     81.085  0.0000E+00  0.5280E+03
     81.109  0.0000E+00  0.5280E+03
     81.134  0.0000E+00  0.5280E+03
     81.159  0.0000E+00  0.5280E+03
     81.184  0.0000E+00  0.5280E+03
     81.209  0.0000E+00  0.5280E+03
     81.233  0.0000E+00  0.5280E+03
     81.258  0.0000E+00  0.5280E+03
     81.283  0.0000E+00  0.5280E+03
     81.308  0.0000E+00  0.5280E+03
     81.332  0.0000E+00  0.5280E+03
     81.357  0.0000E+00  0.5280E+03
     81.382  0.0000E+00  0.5280E+03
     81.407  0.0000E+00  0.5280E+03
     81.432  0.0000E+00  0.5280E+03
     81.456  0.0000E+00  0.5280E+03
     81.481  0.0000E+00  0.5280E+03
     81.506  0.0000E+00  0.5280E+03
     81.531  0.0000E+00  0.5280E+03
     81.556  0.0000E+00  0.5280E+03
     81.580  0.0000E+00  0.5280E+03
     81.605  0.0000E+00  0.5280E+03
     81.630  0.0000E+00  0.5280E+03
     81.655  0.0000E+00  0.5280E+03
     81.679  0.0000E+00  0.5280E+03
     81.704  0.0000E+00  0.5280E+03
     81.729  0.0000E+00  0.5280E+03
     81.754  0.0000E+00  0.5280E+03
     81.779  0.0000E+00  0.5280E+03
     81.803  0.0000E+00  0.5280E+03
     81.828  0.0000E+00  0.5280E+03
     81.853  0.0000E+00  0.5280E+03
     81.878  0.0000E+00  0.5280E+03
     81.903  0.0000E+00  0.5280E+03
     81.927  0.0000E+00  0.5280E+03
